#
# Results on Fri, 26 Jul 2024 11:39:16 GMT
# USER AGENT: Mozilla/5.0 (Macintosh; Intel Mac OS X 10_15_7) AppleWebKit/537.36 (KHTML, like Gecko) Chrome/126.0.0.0 Safari/537.36
# Design number was non-random = 0
#
# Columns below this comment are as follows:
# 1. Results reception time.
# 2. MD5 hash of participant's IP address.
# 3. Controller name.
# 4. Order number of item.
# 5. Inner element number.
# 6. Label.
# 7. Latin Square Group.
# 8. PennElementType.
# 9. PennElementName.
# 10. Parameter.
# 11. Value.
# 12. EventTime.
# 13. Comments.
1721993956,0f45b67869d0055beb57655731890dc1,PennController,1,0,tcle,NULL,PennController,0,_Trial_,Start,1721993362207,NULL
1721993956,0f45b67869d0055beb57655731890dc1,PennController,1,0,tcle,NULL,PennController,0,_Trial_,End,1721993374719,NULL
# 13. ParticipantID.
# 14. Comments.
1721993956,0f45b67869d0055beb57655731890dc1,PennController,2,0,welcomescreen,NULL,PennController,1,_Trial_,Start,1721993374721,X125,NULL
1721993956,0f45b67869d0055beb57655731890dc1,PennController,2,0,welcomescreen,NULL,PennController,1,_Trial_,End,1721993382883,X125,NULL
1721993956,0f45b67869d0055beb57655731890dc1,PennController,3,0,questionnaire,NULL,PennController,2,_Trial_,Start,1721993382885,X125,NULL
1721993956,0f45b67869d0055beb57655731890dc1,PennController,3,0,questionnaire,NULL,TextInput,idadeResposta,First,,1721993384898,X125,2
1721993956,0f45b67869d0055beb57655731890dc1,PennController,3,0,questionnaire,NULL,Scale,escolaridadeResposta,Choice,<p style=font-size:20>Ensino superior completo</p>,1721993404399,X125,NULL
1721993956,0f45b67869d0055beb57655731890dc1,PennController,3,0,questionnaire,NULL,Scale,proficiênciaResposta,Choice,<p style=font-size:20>B1</p>,1721993416964,X125,NULL
1721993956,0f45b67869d0055beb57655731890dc1,PennController,3,0,questionnaire,NULL,Scale,naturalidadeResposta,Choice,<p style=font-size:20>Brasileiro</p>,1721993425265,X125,NULL
1721993956,0f45b67869d0055beb57655731890dc1,PennController,3,0,questionnaire,NULL,Scale,línguaResposta,Choice,<p style=font-size:20>Português do Brasil</p>,1721993428415,X125,NULL
1721993956,0f45b67869d0055beb57655731890dc1,PennController,3,0,questionnaire,NULL,Scale,inglêsResposta,Choice,<p style=font-size:20>Sim</p>,1721993434214,X125,NULL
1721993956,0f45b67869d0055beb57655731890dc1,PennController,3,0,questionnaire,NULL,Scale,tempoResposta,Choice,<p style=font-size:20>Mais de 8 anos</p>,1721993438914,X125,NULL
1721993956,0f45b67869d0055beb57655731890dc1,PennController,3,0,questionnaire,NULL,Scale,morouResposta,Choice,<p style=font-size:20>Não</p>,1721993444831,X125,NULL
1721993956,0f45b67869d0055beb57655731890dc1,PennController,3,0,questionnaire,NULL,Scale,letrasResposta,Choice,<p style=font-size:20>Sim</p>,1721993448014,X125,NULL
1721993956,0f45b67869d0055beb57655731890dc1,PennController,3,0,questionnaire,NULL,TextInput,idadeResposta,Final,25,1721993449748,X125,NULL
1721993956,0f45b67869d0055beb57655731890dc1,PennController,3,0,questionnaire,NULL,PennController,2,_Trial_,End,1721993449750,X125,NULL
1721993956,0f45b67869d0055beb57655731890dc1,PennController,4,0,instructions1,NULL,PennController,3,_Trial_,Start,1721993449752,X125,NULL
1721993956,0f45b67869d0055beb57655731890dc1,PennController,4,0,instructions1,NULL,PennController,3,_Trial_,End,1721993498730,X125,NULL
# 14. group.
# 15. item.
# 16. sentence.
# 17. lexicon.
# 18. noun.
# 19. condition.
# 20. Comments.
1721993956,0f45b67869d0055beb57655731890dc1,PennController,5,0,practice,NULL,PennController,6,_Trial_,Start,1721993498732,X125,NA,1,O motorista entregou trigo na fazenda.,NA,NA,NA,NULL
1721993956,0f45b67869d0055beb57655731890dc1,PennController,5,0,practice,NULL,Text,sentence,Print,NA,1721993498733,X125,NA,1,O motorista entregou trigo na fazenda.,NA,NA,NA,NULL
1721993956,0f45b67869d0055beb57655731890dc1,PennController,5,0,practice,NULL,Button,Julgar,Click,Click,1721993501745,X125,NA,1,O motorista entregou trigo na fazenda.,NA,NA,NA,NULL
1721993956,0f45b67869d0055beb57655731890dc1,PennController,5,0,practice,NULL,Scale,respostapractice,Choice,5,1721993504528,X125,NA,1,O motorista entregou trigo na fazenda.,NA,NA,NA,NULL
1721993956,0f45b67869d0055beb57655731890dc1,PennController,5,0,practice,NULL,PennController,6,_Trial_,End,1721993511513,X125,NA,1,O motorista entregou trigo na fazenda.,NA,NA,NA,NULL
1721993956,0f45b67869d0055beb57655731890dc1,PennController,6,0,practice,NULL,PennController,7,_Trial_,Start,1721993511514,X125,NA,2,Jessica destruiu seu vermelho livro.,NA,NA,NA,NULL
1721993956,0f45b67869d0055beb57655731890dc1,PennController,6,0,practice,NULL,Text,sentence,Print,NA,1721993511515,X125,NA,2,Jessica destruiu seu vermelho livro.,NA,NA,NA,NULL
1721993956,0f45b67869d0055beb57655731890dc1,PennController,6,0,practice,NULL,Button,Julgar,Click,Click,1721993514945,X125,NA,2,Jessica destruiu seu vermelho livro.,NA,NA,NA,NULL
1721993956,0f45b67869d0055beb57655731890dc1,PennController,6,0,practice,NULL,Scale,respostapractice,Choice,5,1721993518828,X125,NA,2,Jessica destruiu seu vermelho livro.,NA,NA,NA,NULL
1721993956,0f45b67869d0055beb57655731890dc1,PennController,6,0,practice,NULL,PennController,7,_Trial_,End,1721993520379,X125,NA,2,Jessica destruiu seu vermelho livro.,NA,NA,NA,NULL
1721993956,0f45b67869d0055beb57655731890dc1,PennController,7,0,practice,NULL,Text,sentence,Print,NA,1721993520381,X125,NA,3,Tonny juntou o lego de sua irmã do chão.,NA,NA,NA,NULL
1721993956,0f45b67869d0055beb57655731890dc1,PennController,7,0,practice,NULL,PennController,8,_Trial_,Start,1721993520381,X125,NA,3,Tonny juntou o lego de sua irmã do chão.,NA,NA,NA,NULL
1721993956,0f45b67869d0055beb57655731890dc1,PennController,7,0,practice,NULL,Button,Julgar,Click,Click,1721993524045,X125,NA,3,Tonny juntou o lego de sua irmã do chão.,NA,NA,NA,NULL
1721993956,0f45b67869d0055beb57655731890dc1,PennController,7,0,practice,NULL,Scale,respostapractice,Choice,5,1721993525728,X125,NA,3,Tonny juntou o lego de sua irmã do chão.,NA,NA,NA,NULL
1721993956,0f45b67869d0055beb57655731890dc1,PennController,7,0,practice,NULL,PennController,8,_Trial_,End,1721993529713,X125,NA,3,Tonny juntou o lego de sua irmã do chão.,NA,NA,NA,NULL
1721993956,0f45b67869d0055beb57655731890dc1,PennController,8,0,practice,NULL,PennController,9,_Trial_,Start,1721993529714,X125,NA,4,O arquiteto construiu a sua mãe casa. ,NA,NA,NA,NULL
1721993956,0f45b67869d0055beb57655731890dc1,PennController,8,0,practice,NULL,Text,sentence,Print,NA,1721993529715,X125,NA,4,O arquiteto construiu a sua mãe casa. ,NA,NA,NA,NULL
1721993956,0f45b67869d0055beb57655731890dc1,PennController,8,0,practice,NULL,Button,Julgar,Click,Click,1721993537611,X125,NA,4,O arquiteto construiu a sua mãe casa. ,NA,NA,NA,NULL
1721993956,0f45b67869d0055beb57655731890dc1,PennController,8,0,practice,NULL,Scale,respostapractice,Choice,1,1721993541677,X125,NA,4,O arquiteto construiu a sua mãe casa. ,NA,NA,NA,NULL
1721993956,0f45b67869d0055beb57655731890dc1,PennController,8,0,practice,NULL,PennController,9,_Trial_,End,1721993543178,X125,NA,4,O arquiteto construiu a sua mãe casa. ,NA,NA,NA,NULL
1721993956,0f45b67869d0055beb57655731890dc1,PennController,9,0,practice,NULL,Text,sentence,Print,NA,1721993543180,X125,NA,5,O motorista transferiu as pessoas para a estação.,NA,NA,NA,NULL
1721993956,0f45b67869d0055beb57655731890dc1,PennController,9,0,practice,NULL,PennController,10,_Trial_,Start,1721993543180,X125,NA,5,O motorista transferiu as pessoas para a estação.,NA,NA,NA,NULL
1721993956,0f45b67869d0055beb57655731890dc1,PennController,9,0,practice,NULL,Button,Julgar,Click,Click,1721993546894,X125,NA,5,O motorista transferiu as pessoas para a estação.,NA,NA,NA,NULL
1721993956,0f45b67869d0055beb57655731890dc1,PennController,9,0,practice,NULL,Scale,respostapractice,Choice,5,1721993548911,X125,NA,5,O motorista transferiu as pessoas para a estação.,NA,NA,NA,NULL
1721993956,0f45b67869d0055beb57655731890dc1,PennController,9,0,practice,NULL,PennController,10,_Trial_,End,1721993550728,X125,NA,5,O motorista transferiu as pessoas para a estação.,NA,NA,NA,NULL
1721993956,0f45b67869d0055beb57655731890dc1,PennController,10,0,practice,NULL,Text,sentence,Print,NA,1721993550730,X125,NA,6,Matthew levantou a sua mochila azul.,NA,NA,NA,NULL
1721993956,0f45b67869d0055beb57655731890dc1,PennController,10,0,practice,NULL,PennController,11,_Trial_,Start,1721993550730,X125,NA,6,Matthew levantou a sua mochila azul.,NA,NA,NA,NULL
1721993956,0f45b67869d0055beb57655731890dc1,PennController,10,0,practice,NULL,Button,Julgar,Click,Click,1721993555944,X125,NA,6,Matthew levantou a sua mochila azul.,NA,NA,NA,NULL
1721993956,0f45b67869d0055beb57655731890dc1,PennController,10,0,practice,NULL,Scale,respostapractice,Choice,5,1721993557810,X125,NA,6,Matthew levantou a sua mochila azul.,NA,NA,NA,NULL
1721993956,0f45b67869d0055beb57655731890dc1,PennController,10,0,practice,NULL,PennController,11,_Trial_,End,1721993558979,X125,NA,6,Matthew levantou a sua mochila azul.,NA,NA,NA,NULL
# 13. Comments.
1721993956,0f45b67869d0055beb57655731890dc1,PennController,11,0,instructions2,NULL,PennController,4,_Trial_,Start,1721993558980,NULL
1721993956,0f45b67869d0055beb57655731890dc1,PennController,11,0,instructions2,NULL,PennController,4,_Trial_,End,1721993571911,NULL
# 13. ParticipantID.
# 14. group.
# 15. item.
# 16. sentence.
# 17. lexicon.
# 18. noun.
# 19. condition.
# 20. Comments.
1721993956,0f45b67869d0055beb57655731890dc1,PennController,49,0,distractor,NULL,Text,sentence,Print,NA,1721993571913,X125,NA,22,Charlotte comprou Calvin casa velha.,NA,NA,NA,NULL
1721993956,0f45b67869d0055beb57655731890dc1,PennController,49,0,distractor,NULL,PennController,49,_Trial_,Start,1721993571913,X125,NA,22,Charlotte comprou Calvin casa velha.,NA,NA,NA,NULL
1721993956,0f45b67869d0055beb57655731890dc1,PennController,49,0,distractor,NULL,Button,Julgar,Click,Click,1721993578260,X125,NA,22,Charlotte comprou Calvin casa velha.,NA,NA,NA,NULL
1721993956,0f45b67869d0055beb57655731890dc1,PennController,49,0,distractor,NULL,Scale,respostapractice,Choice,1,1721993579693,X125,NA,22,Charlotte comprou Calvin casa velha.,NA,NA,NA,NULL
1721993956,0f45b67869d0055beb57655731890dc1,PennController,49,0,distractor,NULL,PennController,49,_Trial_,End,1721993581095,X125,NA,22,Charlotte comprou Calvin casa velha.,NA,NA,NA,NULL
1721993956,0f45b67869d0055beb57655731890dc1,PennController,33,0,distractor,NULL,Text,sentence,Print,NA,1721993581096,X125,NA,6,Marry carregou graciosamente responsabilidade.,NA,NA,NA,NULL
1721993956,0f45b67869d0055beb57655731890dc1,PennController,33,0,distractor,NULL,PennController,33,_Trial_,Start,1721993581096,X125,NA,6,Marry carregou graciosamente responsabilidade.,NA,NA,NA,NULL
1721993956,0f45b67869d0055beb57655731890dc1,PennController,33,0,distractor,NULL,Button,Julgar,Click,Click,1721993588277,X125,NA,6,Marry carregou graciosamente responsabilidade.,NA,NA,NA,NULL
1721993956,0f45b67869d0055beb57655731890dc1,PennController,33,0,distractor,NULL,Scale,respostapractice,Choice,1,1721993590309,X125,NA,6,Marry carregou graciosamente responsabilidade.,NA,NA,NA,NULL
1721993956,0f45b67869d0055beb57655731890dc1,PennController,33,0,distractor,NULL,PennController,33,_Trial_,End,1721993593778,X125,NA,6,Marry carregou graciosamente responsabilidade.,NA,NA,NA,NULL
1721993956,0f45b67869d0055beb57655731890dc1,PennController,15,0,target,NULL,PennController,15,_Trial_,Start,1721993593779,X125,A,4,A aluna trouxe livros da feira.,livros,CNE,CNE+P,NULL
1721993956,0f45b67869d0055beb57655731890dc1,PennController,15,0,target,NULL,Text,sentence,Print,NA,1721993593780,X125,A,4,A aluna trouxe livros da feira.,livros,CNE,CNE+P,NULL
1721993956,0f45b67869d0055beb57655731890dc1,PennController,15,0,target,NULL,Button,Julgar,Click,Click,1721993596110,X125,A,4,A aluna trouxe livros da feira.,livros,CNE,CNE+P,NULL
1721993956,0f45b67869d0055beb57655731890dc1,PennController,15,0,target,NULL,Scale,respostapractice,Choice,5,1721993597409,X125,A,4,A aluna trouxe livros da feira.,livros,CNE,CNE+P,NULL
1721993956,0f45b67869d0055beb57655731890dc1,PennController,15,0,target,NULL,PennController,15,_Trial_,End,1721993598744,X125,A,4,A aluna trouxe livros da feira.,livros,CNE,CNE+P,NULL
1721993956,0f45b67869d0055beb57655731890dc1,PennController,52,0,distractor,NULL,PennController,52,_Trial_,Start,1721993598745,X125,NA,25,Harper limpou Chloe nova casa.,NA,NA,NA,NULL
1721993956,0f45b67869d0055beb57655731890dc1,PennController,52,0,distractor,NULL,Text,sentence,Print,NA,1721993598746,X125,NA,25,Harper limpou Chloe nova casa.,NA,NA,NA,NULL
1721993956,0f45b67869d0055beb57655731890dc1,PennController,52,0,distractor,NULL,Button,Julgar,Click,Click,1721993604143,X125,NA,25,Harper limpou Chloe nova casa.,NA,NA,NA,NULL
1721993956,0f45b67869d0055beb57655731890dc1,PennController,52,0,distractor,NULL,Scale,respostapractice,Choice,1,1721993606526,X125,NA,25,Harper limpou Chloe nova casa.,NA,NA,NA,NULL
1721993956,0f45b67869d0055beb57655731890dc1,PennController,52,0,distractor,NULL,PennController,52,_Trial_,End,1721993609894,X125,NA,25,Harper limpou Chloe nova casa.,NA,NA,NA,NULL
1721993956,0f45b67869d0055beb57655731890dc1,PennController,48,0,distractor,NULL,Text,sentence,Print,NA,1721993609896,X125,NA,21,Ava quebrou Noah garrafa branca.,NA,NA,NA,NULL
1721993956,0f45b67869d0055beb57655731890dc1,PennController,48,0,distractor,NULL,PennController,48,_Trial_,Start,1721993609896,X125,NA,21,Ava quebrou Noah garrafa branca.,NA,NA,NA,NULL
1721993956,0f45b67869d0055beb57655731890dc1,PennController,48,0,distractor,NULL,Button,Julgar,Click,Click,1721993616376,X125,NA,21,Ava quebrou Noah garrafa branca.,NA,NA,NA,NULL
1721993956,0f45b67869d0055beb57655731890dc1,PennController,48,0,distractor,NULL,Scale,respostapractice,Choice,1,1721993617509,X125,NA,21,Ava quebrou Noah garrafa branca.,NA,NA,NA,NULL
1721993956,0f45b67869d0055beb57655731890dc1,PennController,48,0,distractor,NULL,PennController,48,_Trial_,End,1721993620194,X125,NA,21,Ava quebrou Noah garrafa branca.,NA,NA,NA,NULL
1721993956,0f45b67869d0055beb57655731890dc1,PennController,26,0,target,NULL,PennController,26,_Trial_,Start,1721993620195,X125,A,15,A mulher pediu bolos na cafeteria.,bolos,CE,CE+P,NULL
1721993956,0f45b67869d0055beb57655731890dc1,PennController,26,0,target,NULL,Text,sentence,Print,NA,1721993620196,X125,A,15,A mulher pediu bolos na cafeteria.,bolos,CE,CE+P,NULL
1721993956,0f45b67869d0055beb57655731890dc1,PennController,26,0,target,NULL,Button,Julgar,Click,Click,1721993623659,X125,A,15,A mulher pediu bolos na cafeteria.,bolos,CE,CE+P,NULL
1721993956,0f45b67869d0055beb57655731890dc1,PennController,26,0,target,NULL,Scale,respostapractice,Choice,5,1721993627142,X125,A,15,A mulher pediu bolos na cafeteria.,bolos,CE,CE+P,NULL
1721993956,0f45b67869d0055beb57655731890dc1,PennController,26,0,target,NULL,PennController,26,_Trial_,End,1721993628377,X125,A,15,A mulher pediu bolos na cafeteria.,bolos,CE,CE+P,NULL
1721993956,0f45b67869d0055beb57655731890dc1,PennController,54,0,distractor,NULL,PennController,54,_Trial_,Start,1721993628378,X125,NA,27,Ian encontrou Renne rosa bolsa.,NA,NA,NA,NULL
1721993956,0f45b67869d0055beb57655731890dc1,PennController,54,0,distractor,NULL,Text,sentence,Print,NA,1721993628379,X125,NA,27,Ian encontrou Renne rosa bolsa.,NA,NA,NA,NULL
1721993956,0f45b67869d0055beb57655731890dc1,PennController,54,0,distractor,NULL,Button,Julgar,Click,Click,1721993633009,X125,NA,27,Ian encontrou Renne rosa bolsa.,NA,NA,NA,NULL
1721993956,0f45b67869d0055beb57655731890dc1,PennController,54,0,distractor,NULL,Scale,respostapractice,Choice,1,1721993634342,X125,NA,27,Ian encontrou Renne rosa bolsa.,NA,NA,NA,NULL
1721993956,0f45b67869d0055beb57655731890dc1,PennController,54,0,distractor,NULL,PennController,54,_Trial_,End,1721993635476,X125,NA,27,Ian encontrou Renne rosa bolsa.,NA,NA,NA,NULL
1721993956,0f45b67869d0055beb57655731890dc1,PennController,41,0,distractor,NULL,Text,sentence,Print,NA,1721993635478,X125,NA,14,Will dirigiu lentamente.,NA,NA,NA,NULL
1721993956,0f45b67869d0055beb57655731890dc1,PennController,41,0,distractor,NULL,PennController,41,_Trial_,Start,1721993635478,X125,NA,14,Will dirigiu lentamente.,NA,NA,NA,NULL
1721993956,0f45b67869d0055beb57655731890dc1,PennController,41,0,distractor,NULL,Button,Julgar,Click,Click,1721993637709,X125,NA,14,Will dirigiu lentamente.,NA,NA,NA,NULL
1721993956,0f45b67869d0055beb57655731890dc1,PennController,41,0,distractor,NULL,Scale,respostapractice,Choice,5,1721993640075,X125,NA,14,Will dirigiu lentamente.,NA,NA,NA,NULL
1721993956,0f45b67869d0055beb57655731890dc1,PennController,41,0,distractor,NULL,PennController,41,_Trial_,End,1721993641177,X125,NA,14,Will dirigiu lentamente.,NA,NA,NA,NULL
1721993956,0f45b67869d0055beb57655731890dc1,PennController,14,0,target,NULL,Text,sentence,Print,NA,1721993641178,X125,A,3,O professor trouxe maçãs da escola.,maçãs,CE,CE+P,NULL
1721993956,0f45b67869d0055beb57655731890dc1,PennController,14,0,target,NULL,PennController,14,_Trial_,Start,1721993641178,X125,A,3,O professor trouxe maçãs da escola.,maçãs,CE,CE+P,NULL
1721993956,0f45b67869d0055beb57655731890dc1,PennController,14,0,target,NULL,Button,Julgar,Click,Click,1721993643409,X125,A,3,O professor trouxe maçãs da escola.,maçãs,CE,CE+P,NULL
1721993956,0f45b67869d0055beb57655731890dc1,PennController,14,0,target,NULL,Scale,respostapractice,Choice,5,1721993646175,X125,A,3,O professor trouxe maçãs da escola.,maçãs,CE,CE+P,NULL
1721993956,0f45b67869d0055beb57655731890dc1,PennController,14,0,target,NULL,PennController,14,_Trial_,End,1721993647427,X125,A,3,O professor trouxe maçãs da escola.,maçãs,CE,CE+P,NULL
1721993956,0f45b67869d0055beb57655731890dc1,PennController,31,0,distractor,NULL,Text,sentence,Print,NA,1721993647428,X125,NA,4,Carol leu silenciosamente as instruções.,NA,NA,NA,NULL
1721993956,0f45b67869d0055beb57655731890dc1,PennController,31,0,distractor,NULL,PennController,31,_Trial_,Start,1721993647428,X125,NA,4,Carol leu silenciosamente as instruções.,NA,NA,NA,NULL
1721993956,0f45b67869d0055beb57655731890dc1,PennController,31,0,distractor,NULL,Button,Julgar,Click,Click,1721993649792,X125,NA,4,Carol leu silenciosamente as instruções.,NA,NA,NA,NULL
1721993956,0f45b67869d0055beb57655731890dc1,PennController,31,0,distractor,NULL,Scale,respostapractice,Choice,5,1721993651375,X125,NA,4,Carol leu silenciosamente as instruções.,NA,NA,NA,NULL
1721993956,0f45b67869d0055beb57655731890dc1,PennController,31,0,distractor,NULL,PennController,31,_Trial_,End,1721993652326,X125,NA,4,Carol leu silenciosamente as instruções.,NA,NA,NA,NULL
1721993956,0f45b67869d0055beb57655731890dc1,PennController,38,0,distractor,NULL,Text,sentence,Print,NA,1721993652328,X125,NA,11,Laura desmaiou rapidamente.,NA,NA,NA,NULL
1721993956,0f45b67869d0055beb57655731890dc1,PennController,38,0,distractor,NULL,PennController,38,_Trial_,Start,1721993652328,X125,NA,11,Laura desmaiou rapidamente.,NA,NA,NA,NULL
1721993956,0f45b67869d0055beb57655731890dc1,PennController,38,0,distractor,NULL,Button,Julgar,Click,Click,1721993654342,X125,NA,11,Laura desmaiou rapidamente.,NA,NA,NA,NULL
1721993956,0f45b67869d0055beb57655731890dc1,PennController,38,0,distractor,NULL,Scale,respostapractice,Choice,5,1721993655775,X125,NA,11,Laura desmaiou rapidamente.,NA,NA,NA,NULL
1721993956,0f45b67869d0055beb57655731890dc1,PennController,38,0,distractor,NULL,PennController,38,_Trial_,End,1721993657259,X125,NA,11,Laura desmaiou rapidamente.,NA,NA,NA,NULL
1721993956,0f45b67869d0055beb57655731890dc1,PennController,13,0,target,NULL,PennController,13,_Trial_,Start,1721993657260,X125,A,2,A mãe colocou flor no vaso.,flor,CNE,CNE+S,NULL
1721993956,0f45b67869d0055beb57655731890dc1,PennController,13,0,target,NULL,Text,sentence,Print,NA,1721993657261,X125,A,2,A mãe colocou flor no vaso.,flor,CNE,CNE+S,NULL
1721993956,0f45b67869d0055beb57655731890dc1,PennController,13,0,target,NULL,Button,Julgar,Click,Click,1721993659258,X125,A,2,A mãe colocou flor no vaso.,flor,CNE,CNE+S,NULL
1721993956,0f45b67869d0055beb57655731890dc1,PennController,13,0,target,NULL,Scale,respostapractice,Choice,5,1721993662024,X125,A,2,A mãe colocou flor no vaso.,flor,CNE,CNE+S,NULL
1721993956,0f45b67869d0055beb57655731890dc1,PennController,13,0,target,NULL,PennController,13,_Trial_,End,1721993664160,X125,A,2,A mãe colocou flor no vaso.,flor,CNE,CNE+S,NULL
1721993956,0f45b67869d0055beb57655731890dc1,PennController,32,0,distractor,NULL,PennController,32,_Trial_,Start,1721993664161,X125,NA,5,Vlad bebeu rapidamente vinho.,NA,NA,NA,NULL
1721993956,0f45b67869d0055beb57655731890dc1,PennController,32,0,distractor,NULL,Text,sentence,Print,NA,1721993664162,X125,NA,5,Vlad bebeu rapidamente vinho.,NA,NA,NA,NULL
1721993956,0f45b67869d0055beb57655731890dc1,PennController,32,0,distractor,NULL,Button,Julgar,Click,Click,1721993666742,X125,NA,5,Vlad bebeu rapidamente vinho.,NA,NA,NA,NULL
1721993956,0f45b67869d0055beb57655731890dc1,PennController,32,0,distractor,NULL,Scale,respostapractice,Choice,5,1721993670191,X125,NA,5,Vlad bebeu rapidamente vinho.,NA,NA,NA,NULL
1721993956,0f45b67869d0055beb57655731890dc1,PennController,32,0,distractor,NULL,PennController,32,_Trial_,End,1721993682158,X125,NA,5,Vlad bebeu rapidamente vinho.,NA,NA,NA,NULL
1721993956,0f45b67869d0055beb57655731890dc1,PennController,43,0,distractor,NULL,Text,sentence,Print,NA,1721993682160,X125,NA,16,O caminhoneiro abraçou seu cachorro gentilmente.,NA,NA,NA,NULL
1721993956,0f45b67869d0055beb57655731890dc1,PennController,43,0,distractor,NULL,PennController,43,_Trial_,Start,1721993682160,X125,NA,16,O caminhoneiro abraçou seu cachorro gentilmente.,NA,NA,NA,NULL
1721993956,0f45b67869d0055beb57655731890dc1,PennController,43,0,distractor,NULL,Button,Julgar,Click,Click,1721993684675,X125,NA,16,O caminhoneiro abraçou seu cachorro gentilmente.,NA,NA,NA,NULL
1721993956,0f45b67869d0055beb57655731890dc1,PennController,43,0,distractor,NULL,Scale,respostapractice,Choice,5,1721993686291,X125,NA,16,O caminhoneiro abraçou seu cachorro gentilmente.,NA,NA,NA,NULL
1721993956,0f45b67869d0055beb57655731890dc1,PennController,43,0,distractor,NULL,PennController,43,_Trial_,End,1721993689275,X125,NA,16,O caminhoneiro abraçou seu cachorro gentilmente.,NA,NA,NA,NULL
1721993956,0f45b67869d0055beb57655731890dc1,PennController,25,0,target,NULL,Text,sentence,Print,NA,1721993689277,X125,A,14,A menina perdeu calça na viajem. ,calça,CNE,CNE+S,NULL
1721993956,0f45b67869d0055beb57655731890dc1,PennController,25,0,target,NULL,PennController,25,_Trial_,Start,1721993689277,X125,A,14,A menina perdeu calça na viajem. ,calça,CNE,CNE+S,NULL
1721993956,0f45b67869d0055beb57655731890dc1,PennController,25,0,target,NULL,Button,Julgar,Click,Click,1721993697208,X125,A,14,A menina perdeu calça na viajem. ,calça,CNE,CNE+S,NULL
1721993956,0f45b67869d0055beb57655731890dc1,PennController,25,0,target,NULL,Scale,respostapractice,Choice,5,1721993699774,X125,A,14,A menina perdeu calça na viajem. ,calça,CNE,CNE+S,NULL
1721993956,0f45b67869d0055beb57655731890dc1,PennController,25,0,target,NULL,PennController,25,_Trial_,End,1721993707308,X125,A,14,A menina perdeu calça na viajem. ,calça,CNE,CNE+S,NULL
1721993956,0f45b67869d0055beb57655731890dc1,PennController,55,0,distractor,NULL,Text,sentence,Print,NA,1721993707310,X125,NA,28,Dylan fez Kacey nova lição de casa.,NA,NA,NA,NULL
1721993956,0f45b67869d0055beb57655731890dc1,PennController,55,0,distractor,NULL,PennController,55,_Trial_,Start,1721993707310,X125,NA,28,Dylan fez Kacey nova lição de casa.,NA,NA,NA,NULL
1721993956,0f45b67869d0055beb57655731890dc1,PennController,55,0,distractor,NULL,Button,Julgar,Click,Click,1721993710207,X125,NA,28,Dylan fez Kacey nova lição de casa.,NA,NA,NA,NULL
1721993956,0f45b67869d0055beb57655731890dc1,PennController,55,0,distractor,NULL,Scale,respostapractice,Choice,1,1721993717173,X125,NA,28,Dylan fez Kacey nova lição de casa.,NA,NA,NA,NULL
1721993956,0f45b67869d0055beb57655731890dc1,PennController,55,0,distractor,NULL,PennController,55,_Trial_,End,1721993718308,X125,NA,28,Dylan fez Kacey nova lição de casa.,NA,NA,NA,NULL
1721993956,0f45b67869d0055beb57655731890dc1,PennController,34,0,distractor,NULL,Text,sentence,Print,NA,1721993718310,X125,NA,7,A menina estudou tristemente matemática.,NA,NA,NA,NULL
1721993956,0f45b67869d0055beb57655731890dc1,PennController,34,0,distractor,NULL,PennController,34,_Trial_,Start,1721993718310,X125,NA,7,A menina estudou tristemente matemática.,NA,NA,NA,NULL
1721993956,0f45b67869d0055beb57655731890dc1,PennController,34,0,distractor,NULL,Button,Julgar,Click,Click,1721993720623,X125,NA,7,A menina estudou tristemente matemática.,NA,NA,NA,NULL
1721993956,0f45b67869d0055beb57655731890dc1,PennController,34,0,distractor,NULL,Scale,respostapractice,Choice,5,1721993723624,X125,NA,7,A menina estudou tristemente matemática.,NA,NA,NA,NULL
1721993956,0f45b67869d0055beb57655731890dc1,PennController,34,0,distractor,NULL,PennController,34,_Trial_,End,1721993726208,X125,NA,7,A menina estudou tristemente matemática.,NA,NA,NA,NULL
1721993956,0f45b67869d0055beb57655731890dc1,PennController,27,0,target,NULL,Text,sentence,Print,NA,1721993726210,X125,A,16,O menino viu bolas no jardim.,bolas,CNE,CNE+P,NULL
1721993956,0f45b67869d0055beb57655731890dc1,PennController,27,0,target,NULL,PennController,27,_Trial_,Start,1721993726210,X125,A,16,O menino viu bolas no jardim.,bolas,CNE,CNE+P,NULL
1721993956,0f45b67869d0055beb57655731890dc1,PennController,27,0,target,NULL,Button,Julgar,Click,Click,1721993728190,X125,A,16,O menino viu bolas no jardim.,bolas,CNE,CNE+P,NULL
1721993956,0f45b67869d0055beb57655731890dc1,PennController,27,0,target,NULL,Scale,respostapractice,Choice,5,1721993730089,X125,A,16,O menino viu bolas no jardim.,bolas,CNE,CNE+P,NULL
1721993956,0f45b67869d0055beb57655731890dc1,PennController,27,0,target,NULL,PennController,27,_Trial_,End,1721993731275,X125,A,16,O menino viu bolas no jardim.,bolas,CNE,CNE+P,NULL
1721993956,0f45b67869d0055beb57655731890dc1,PennController,44,0,distractor,NULL,PennController,44,_Trial_,Start,1721993731276,X125,NA,17,Benjamin viu Emma carro vermelho.,NA,NA,NA,NULL
1721993956,0f45b67869d0055beb57655731890dc1,PennController,44,0,distractor,NULL,Text,sentence,Print,NA,1721993731277,X125,NA,17,Benjamin viu Emma carro vermelho.,NA,NA,NA,NULL
1721993956,0f45b67869d0055beb57655731890dc1,PennController,44,0,distractor,NULL,Button,Julgar,Click,Click,1721993733173,X125,NA,17,Benjamin viu Emma carro vermelho.,NA,NA,NA,NULL
1721993956,0f45b67869d0055beb57655731890dc1,PennController,44,0,distractor,NULL,Scale,respostapractice,Choice,1,1721993736040,X125,NA,17,Benjamin viu Emma carro vermelho.,NA,NA,NA,NULL
1721993956,0f45b67869d0055beb57655731890dc1,PennController,44,0,distractor,NULL,PennController,44,_Trial_,End,1721993737607,X125,NA,17,Benjamin viu Emma carro vermelho.,NA,NA,NA,NULL
1721993956,0f45b67869d0055beb57655731890dc1,PennController,28,0,distractor,NULL,PennController,28,_Trial_,Start,1721993737608,X125,NA,1,John viu feliz Mary.,NA,NA,NA,NULL
1721993956,0f45b67869d0055beb57655731890dc1,PennController,28,0,distractor,NULL,Text,sentence,Print,NA,1721993737609,X125,NA,1,John viu feliz Mary.,NA,NA,NA,NULL
1721993956,0f45b67869d0055beb57655731890dc1,PennController,28,0,distractor,NULL,Button,Julgar,Click,Click,1721993739106,X125,NA,1,John viu feliz Mary.,NA,NA,NA,NULL
1721993956,0f45b67869d0055beb57655731890dc1,PennController,28,0,distractor,NULL,Scale,respostapractice,Choice,5,1721993743956,X125,NA,1,John viu feliz Mary.,NA,NA,NA,NULL
1721993956,0f45b67869d0055beb57655731890dc1,PennController,28,0,distractor,NULL,PennController,28,_Trial_,End,1721993745791,X125,NA,1,John viu feliz Mary.,NA,NA,NA,NULL
1721993956,0f45b67869d0055beb57655731890dc1,PennController,22,0,target,NULL,Text,sentence,Print,NA,1721993745793,X125,A,11,A veterinária deixou bananas na floresta.,bananas,CE,CE+P,NULL
1721993956,0f45b67869d0055beb57655731890dc1,PennController,22,0,target,NULL,PennController,22,_Trial_,Start,1721993745793,X125,A,11,A veterinária deixou bananas na floresta.,bananas,CE,CE+P,NULL
1721993956,0f45b67869d0055beb57655731890dc1,PennController,22,0,target,NULL,Button,Julgar,Click,Click,1721993750756,X125,A,11,A veterinária deixou bananas na floresta.,bananas,CE,CE+P,NULL
1721993956,0f45b67869d0055beb57655731890dc1,PennController,22,0,target,NULL,Scale,respostapractice,Choice,5,1721993752789,X125,A,11,A veterinária deixou bananas na floresta.,bananas,CE,CE+P,NULL
1721993956,0f45b67869d0055beb57655731890dc1,PennController,22,0,target,NULL,PennController,22,_Trial_,End,1721993754107,X125,A,11,A veterinária deixou bananas na floresta.,bananas,CE,CE+P,NULL
1721993956,0f45b67869d0055beb57655731890dc1,PennController,56,0,distractor,NULL,Text,sentence,Print,NA,1721993754109,X125,NA,29,Ethan arranhou Madison madeira mesa.,NA,NA,NA,NULL
1721993956,0f45b67869d0055beb57655731890dc1,PennController,56,0,distractor,NULL,PennController,56,_Trial_,Start,1721993754109,X125,NA,29,Ethan arranhou Madison madeira mesa.,NA,NA,NA,NULL
1721993956,0f45b67869d0055beb57655731890dc1,PennController,56,0,distractor,NULL,Button,Julgar,Click,Click,1721993756889,X125,NA,29,Ethan arranhou Madison madeira mesa.,NA,NA,NA,NULL
1721993956,0f45b67869d0055beb57655731890dc1,PennController,56,0,distractor,NULL,Scale,respostapractice,Choice,1,1721993758189,X125,NA,29,Ethan arranhou Madison madeira mesa.,NA,NA,NA,NULL
1721993956,0f45b67869d0055beb57655731890dc1,PennController,56,0,distractor,NULL,PennController,56,_Trial_,End,1721993759507,X125,NA,29,Ethan arranhou Madison madeira mesa.,NA,NA,NA,NULL
1721993956,0f45b67869d0055beb57655731890dc1,PennController,45,0,distractor,NULL,Text,sentence,Print,NA,1721993759509,X125,NA,18,Scarlet estragou seu computador novo.,NA,NA,NA,NULL
1721993956,0f45b67869d0055beb57655731890dc1,PennController,45,0,distractor,NULL,PennController,45,_Trial_,Start,1721993759509,X125,NA,18,Scarlet estragou seu computador novo.,NA,NA,NA,NULL
1721993956,0f45b67869d0055beb57655731890dc1,PennController,45,0,distractor,NULL,Button,Julgar,Click,Click,1721993761306,X125,NA,18,Scarlet estragou seu computador novo.,NA,NA,NA,NULL
1721993956,0f45b67869d0055beb57655731890dc1,PennController,45,0,distractor,NULL,Scale,respostapractice,Choice,5,1721993762806,X125,NA,18,Scarlet estragou seu computador novo.,NA,NA,NA,NULL
1721993956,0f45b67869d0055beb57655731890dc1,PennController,45,0,distractor,NULL,PennController,45,_Trial_,End,1721993763890,X125,NA,18,Scarlet estragou seu computador novo.,NA,NA,NA,NULL
1721993956,0f45b67869d0055beb57655731890dc1,PennController,21,0,target,NULL,Text,sentence,Print,NA,1721993763892,X125,A,10,O trabalhador vendeu foto na praia.,foto,CNE,CNE+S,NULL
1721993956,0f45b67869d0055beb57655731890dc1,PennController,21,0,target,NULL,PennController,21,_Trial_,Start,1721993763892,X125,A,10,O trabalhador vendeu foto na praia.,foto,CNE,CNE+S,NULL
1721993956,0f45b67869d0055beb57655731890dc1,PennController,21,0,target,NULL,Button,Julgar,Click,Click,1721993765323,X125,A,10,O trabalhador vendeu foto na praia.,foto,CNE,CNE+S,NULL
1721993956,0f45b67869d0055beb57655731890dc1,PennController,21,0,target,NULL,Scale,respostapractice,Choice,5,1721993767039,X125,A,10,O trabalhador vendeu foto na praia.,foto,CNE,CNE+S,NULL
1721993956,0f45b67869d0055beb57655731890dc1,PennController,21,0,target,NULL,PennController,21,_Trial_,End,1721993769491,X125,A,10,O trabalhador vendeu foto na praia.,foto,CNE,CNE+S,NULL
1721993956,0f45b67869d0055beb57655731890dc1,PennController,58,0,distractor,NULL,Text,sentence,Print,NA,1721993769492,X125,NA,31,O produtor gravou o cantor gentil voz.,NA,NA,NA,NULL
1721993956,0f45b67869d0055beb57655731890dc1,PennController,58,0,distractor,NULL,PennController,58,_Trial_,Start,1721993769492,X125,NA,31,O produtor gravou o cantor gentil voz.,NA,NA,NA,NULL
1721993956,0f45b67869d0055beb57655731890dc1,PennController,58,0,distractor,NULL,Button,Julgar,Click,Click,1721993771556,X125,NA,31,O produtor gravou o cantor gentil voz.,NA,NA,NA,NULL
1721993956,0f45b67869d0055beb57655731890dc1,PennController,58,0,distractor,NULL,Scale,respostapractice,Choice,1,1721993774172,X125,NA,31,O produtor gravou o cantor gentil voz.,NA,NA,NA,NULL
1721993956,0f45b67869d0055beb57655731890dc1,PennController,58,0,distractor,NULL,PennController,58,_Trial_,End,1721993775390,X125,NA,31,O produtor gravou o cantor gentil voz.,NA,NA,NA,NULL
1721993956,0f45b67869d0055beb57655731890dc1,PennController,47,0,distractor,NULL,PennController,47,_Trial_,Start,1721993775391,X125,NA,20,Zoe comeu uma maçã verde.,NA,NA,NA,NULL
1721993956,0f45b67869d0055beb57655731890dc1,PennController,47,0,distractor,NULL,Text,sentence,Print,NA,1721993775392,X125,NA,20,Zoe comeu uma maçã verde.,NA,NA,NA,NULL
1721993956,0f45b67869d0055beb57655731890dc1,PennController,47,0,distractor,NULL,Button,Julgar,Click,Click,1721993777389,X125,NA,20,Zoe comeu uma maçã verde.,NA,NA,NA,NULL
1721993956,0f45b67869d0055beb57655731890dc1,PennController,47,0,distractor,NULL,Scale,respostapractice,Choice,5,1721993778688,X125,NA,20,Zoe comeu uma maçã verde.,NA,NA,NA,NULL
1721993956,0f45b67869d0055beb57655731890dc1,PennController,47,0,distractor,NULL,PennController,47,_Trial_,End,1721993779757,X125,NA,20,Zoe comeu uma maçã verde.,NA,NA,NA,NULL
1721993956,0f45b67869d0055beb57655731890dc1,PennController,18,0,target,NULL,PennController,18,_Trial_,Start,1721993779758,X125,A,7,O adolescente derrubou romãs na cozinha.,romãs,CE,CE+P,NULL
1721993956,0f45b67869d0055beb57655731890dc1,PennController,18,0,target,NULL,Text,sentence,Print,NA,1721993779759,X125,A,7,O adolescente derrubou romãs na cozinha.,romãs,CE,CE+P,NULL
1721993956,0f45b67869d0055beb57655731890dc1,PennController,18,0,target,NULL,Button,Julgar,Click,Click,1721993780906,X125,A,7,O adolescente derrubou romãs na cozinha.,romãs,CE,CE+P,NULL
1721993956,0f45b67869d0055beb57655731890dc1,PennController,18,0,target,NULL,Scale,respostapractice,Choice,5,1721993783255,X125,A,7,O adolescente derrubou romãs na cozinha.,romãs,CE,CE+P,NULL
1721993956,0f45b67869d0055beb57655731890dc1,PennController,18,0,target,NULL,PennController,18,_Trial_,End,1721993784323,X125,A,7,O adolescente derrubou romãs na cozinha.,romãs,CE,CE+P,NULL
1721993956,0f45b67869d0055beb57655731890dc1,PennController,30,0,distractor,NULL,Text,sentence,Print,NA,1721993784325,X125,NA,3,Rod escreveu quietamente um poema.,NA,NA,NA,NULL
1721993956,0f45b67869d0055beb57655731890dc1,PennController,30,0,distractor,NULL,PennController,30,_Trial_,Start,1721993784325,X125,NA,3,Rod escreveu quietamente um poema.,NA,NA,NA,NULL
1721993956,0f45b67869d0055beb57655731890dc1,PennController,30,0,distractor,NULL,Button,Julgar,Click,Click,1721993785922,X125,NA,3,Rod escreveu quietamente um poema.,NA,NA,NA,NULL
1721993956,0f45b67869d0055beb57655731890dc1,PennController,30,0,distractor,NULL,Scale,respostapractice,Choice,5,1721993789272,X125,NA,3,Rod escreveu quietamente um poema.,NA,NA,NA,NULL
1721993956,0f45b67869d0055beb57655731890dc1,PennController,30,0,distractor,NULL,PennController,30,_Trial_,End,1721993790223,X125,NA,3,Rod escreveu quietamente um poema.,NA,NA,NA,NULL
1721993956,0f45b67869d0055beb57655731890dc1,PennController,42,0,distractor,NULL,Text,sentence,Print,NA,1721993790225,X125,NA,15,A senhora apresentou confidentemente.,NA,NA,NA,NULL
1721993956,0f45b67869d0055beb57655731890dc1,PennController,42,0,distractor,NULL,PennController,42,_Trial_,Start,1721993790225,X125,NA,15,A senhora apresentou confidentemente.,NA,NA,NA,NULL
1721993956,0f45b67869d0055beb57655731890dc1,PennController,42,0,distractor,NULL,Button,Julgar,Click,Click,1721993792622,X125,NA,15,A senhora apresentou confidentemente.,NA,NA,NA,NULL
1721993956,0f45b67869d0055beb57655731890dc1,PennController,42,0,distractor,NULL,Scale,respostapractice,Choice,5,1721993795904,X125,NA,15,A senhora apresentou confidentemente.,NA,NA,NA,NULL
1721993956,0f45b67869d0055beb57655731890dc1,PennController,42,0,distractor,NULL,PennController,42,_Trial_,End,1721993797123,X125,NA,15,A senhora apresentou confidentemente.,NA,NA,NA,NULL
1721993956,0f45b67869d0055beb57655731890dc1,PennController,16,0,target,NULL,PennController,16,_Trial_,Start,1721993797124,X125,A,5,A diarista encontrou pirulito no guarda-roupas.,pirulito,CE,CE+S,NULL
1721993956,0f45b67869d0055beb57655731890dc1,PennController,16,0,target,NULL,Text,sentence,Print,NA,1721993797125,X125,A,5,A diarista encontrou pirulito no guarda-roupas.,pirulito,CE,CE+S,NULL
1721993956,0f45b67869d0055beb57655731890dc1,PennController,16,0,target,NULL,Button,Julgar,Click,Click,1721993799022,X125,A,5,A diarista encontrou pirulito no guarda-roupas.,pirulito,CE,CE+S,NULL
1721993956,0f45b67869d0055beb57655731890dc1,PennController,16,0,target,NULL,Scale,respostapractice,Choice,5,1721993800238,X125,A,5,A diarista encontrou pirulito no guarda-roupas.,pirulito,CE,CE+S,NULL
1721993956,0f45b67869d0055beb57655731890dc1,PennController,16,0,target,NULL,PennController,16,_Trial_,End,1721993801306,X125,A,5,A diarista encontrou pirulito no guarda-roupas.,pirulito,CE,CE+S,NULL
1721993956,0f45b67869d0055beb57655731890dc1,PennController,50,0,distractor,NULL,PennController,50,_Trial_,Start,1721993801307,X125,NA,23,A mãe lavou sua filha vestido fedorento.,NA,NA,NA,NULL
1721993956,0f45b67869d0055beb57655731890dc1,PennController,50,0,distractor,NULL,Text,sentence,Print,NA,1721993801308,X125,NA,23,A mãe lavou sua filha vestido fedorento.,NA,NA,NA,NULL
1721993956,0f45b67869d0055beb57655731890dc1,PennController,50,0,distractor,NULL,Button,Julgar,Click,Click,1721993803188,X125,NA,23,A mãe lavou sua filha vestido fedorento.,NA,NA,NA,NULL
1721993956,0f45b67869d0055beb57655731890dc1,PennController,50,0,distractor,NULL,Scale,respostapractice,Choice,1,1721993808838,X125,NA,23,A mãe lavou sua filha vestido fedorento.,NA,NA,NA,NULL
1721993956,0f45b67869d0055beb57655731890dc1,PennController,50,0,distractor,NULL,PennController,50,_Trial_,End,1721993810073,X125,NA,23,A mãe lavou sua filha vestido fedorento.,NA,NA,NA,NULL
1721993956,0f45b67869d0055beb57655731890dc1,PennController,37,0,distractor,NULL,PennController,37,_Trial_,Start,1721993810074,X125,NA,10,Tom acordou preguiçosamente.,NA,NA,NA,NULL
1721993956,0f45b67869d0055beb57655731890dc1,PennController,37,0,distractor,NULL,Text,sentence,Print,NA,1721993810075,X125,NA,10,Tom acordou preguiçosamente.,NA,NA,NA,NULL
1721993956,0f45b67869d0055beb57655731890dc1,PennController,37,0,distractor,NULL,Button,Julgar,Click,Click,1721993811705,X125,NA,10,Tom acordou preguiçosamente.,NA,NA,NA,NULL
1721993956,0f45b67869d0055beb57655731890dc1,PennController,37,0,distractor,NULL,Scale,respostapractice,Choice,5,1721993813171,X125,NA,10,Tom acordou preguiçosamente.,NA,NA,NA,NULL
1721993956,0f45b67869d0055beb57655731890dc1,PennController,37,0,distractor,NULL,PennController,37,_Trial_,End,1721993814123,X125,NA,10,Tom acordou preguiçosamente.,NA,NA,NA,NULL
1721993956,0f45b67869d0055beb57655731890dc1,PennController,24,0,target,NULL,PennController,24,_Trial_,Start,1721993814124,X125,A,13,O rancheiro pegou bergamota da fazenda.,bergamota,CE,CE+S,NULL
1721993956,0f45b67869d0055beb57655731890dc1,PennController,24,0,target,NULL,Text,sentence,Print,NA,1721993814125,X125,A,13,O rancheiro pegou bergamota da fazenda.,bergamota,CE,CE+S,NULL
1721993956,0f45b67869d0055beb57655731890dc1,PennController,24,0,target,NULL,Button,Julgar,Click,Click,1721993816588,X125,A,13,O rancheiro pegou bergamota da fazenda.,bergamota,CE,CE+S,NULL
1721993956,0f45b67869d0055beb57655731890dc1,PennController,24,0,target,NULL,Scale,respostapractice,Choice,5,1721993818038,X125,A,13,O rancheiro pegou bergamota da fazenda.,bergamota,CE,CE+S,NULL
1721993956,0f45b67869d0055beb57655731890dc1,PennController,24,0,target,NULL,PennController,24,_Trial_,End,1721993819056,X125,A,13,O rancheiro pegou bergamota da fazenda.,bergamota,CE,CE+S,NULL
1721993956,0f45b67869d0055beb57655731890dc1,PennController,57,0,distractor,NULL,PennController,57,_Trial_,Start,1721993819057,X125,NA,30,Olivia cortou Jack longo cabelo.,NA,NA,NA,NULL
1721993956,0f45b67869d0055beb57655731890dc1,PennController,57,0,distractor,NULL,Text,sentence,Print,NA,1721993819058,X125,NA,30,Olivia cortou Jack longo cabelo.,NA,NA,NA,NULL
1721993956,0f45b67869d0055beb57655731890dc1,PennController,57,0,distractor,NULL,Button,Julgar,Click,Click,1721993820787,X125,NA,30,Olivia cortou Jack longo cabelo.,NA,NA,NA,NULL
1721993956,0f45b67869d0055beb57655731890dc1,PennController,57,0,distractor,NULL,Scale,respostapractice,Choice,1,1721993822887,X125,NA,30,Olivia cortou Jack longo cabelo.,NA,NA,NA,NULL
1721993956,0f45b67869d0055beb57655731890dc1,PennController,57,0,distractor,NULL,PennController,57,_Trial_,End,1721993823906,X125,NA,30,Olivia cortou Jack longo cabelo.,NA,NA,NA,NULL
1721993956,0f45b67869d0055beb57655731890dc1,PennController,51,0,distractor,NULL,Text,sentence,Print,NA,1721993823907,X125,NA,24,O jardineiro molhou sua esposa flor seca.,NA,NA,NA,NULL
1721993956,0f45b67869d0055beb57655731890dc1,PennController,51,0,distractor,NULL,PennController,51,_Trial_,Start,1721993823907,X125,NA,24,O jardineiro molhou sua esposa flor seca.,NA,NA,NA,NULL
1721993956,0f45b67869d0055beb57655731890dc1,PennController,51,0,distractor,NULL,Button,Julgar,Click,Click,1721993825504,X125,NA,24,O jardineiro molhou sua esposa flor seca.,NA,NA,NA,NULL
1721993956,0f45b67869d0055beb57655731890dc1,PennController,51,0,distractor,NULL,Scale,respostapractice,Choice,1,1721993827204,X125,NA,24,O jardineiro molhou sua esposa flor seca.,NA,NA,NA,NULL
1721993956,0f45b67869d0055beb57655731890dc1,PennController,51,0,distractor,NULL,PennController,51,_Trial_,End,1721993834389,X125,NA,24,O jardineiro molhou sua esposa flor seca.,NA,NA,NA,NULL
1721993956,0f45b67869d0055beb57655731890dc1,PennController,17,0,target,NULL,PennController,17,_Trial_,Start,1721993834390,X125,A,6,O homem vendeu revista no supermercado.,revista,CNE,CNE+S,NULL
1721993956,0f45b67869d0055beb57655731890dc1,PennController,17,0,target,NULL,Text,sentence,Print,NA,1721993834391,X125,A,6,O homem vendeu revista no supermercado.,revista,CNE,CNE+S,NULL
1721993956,0f45b67869d0055beb57655731890dc1,PennController,17,0,target,NULL,Button,Julgar,Click,Click,1721993836404,X125,A,6,O homem vendeu revista no supermercado.,revista,CNE,CNE+S,NULL
1721993956,0f45b67869d0055beb57655731890dc1,PennController,17,0,target,NULL,Scale,respostapractice,Choice,5,1721993837671,X125,A,6,O homem vendeu revista no supermercado.,revista,CNE,CNE+S,NULL
1721993956,0f45b67869d0055beb57655731890dc1,PennController,17,0,target,NULL,PennController,17,_Trial_,End,1721993838755,X125,A,6,O homem vendeu revista no supermercado.,revista,CNE,CNE+S,NULL
1721993956,0f45b67869d0055beb57655731890dc1,PennController,46,0,distractor,NULL,PennController,46,_Trial_,Start,1721993838756,X125,NA,19,Liam esbarrou na Michaela bicicleta azul.,NA,NA,NA,NULL
1721993956,0f45b67869d0055beb57655731890dc1,PennController,46,0,distractor,NULL,Text,sentence,Print,NA,1721993838757,X125,NA,19,Liam esbarrou na Michaela bicicleta azul.,NA,NA,NA,NULL
1721993956,0f45b67869d0055beb57655731890dc1,PennController,46,0,distractor,NULL,Button,Julgar,Click,Click,1721993841621,X125,NA,19,Liam esbarrou na Michaela bicicleta azul.,NA,NA,NA,NULL
1721993956,0f45b67869d0055beb57655731890dc1,PennController,46,0,distractor,NULL,Scale,respostapractice,Choice,1,1721993842970,X125,NA,19,Liam esbarrou na Michaela bicicleta azul.,NA,NA,NA,NULL
1721993956,0f45b67869d0055beb57655731890dc1,PennController,46,0,distractor,NULL,PennController,46,_Trial_,End,1721993844072,X125,NA,19,Liam esbarrou na Michaela bicicleta azul.,NA,NA,NA,NULL
1721993956,0f45b67869d0055beb57655731890dc1,PennController,35,0,distractor,NULL,PennController,35,_Trial_,Start,1721993844073,X125,NA,8,O menino fechou sonolentamente seus olhos.,NA,NA,NA,NULL
1721993956,0f45b67869d0055beb57655731890dc1,PennController,35,0,distractor,NULL,Text,sentence,Print,NA,1721993844074,X125,NA,8,O menino fechou sonolentamente seus olhos.,NA,NA,NA,NULL
1721993956,0f45b67869d0055beb57655731890dc1,PennController,35,0,distractor,NULL,Button,Julgar,Click,Click,1721993847471,X125,NA,8,O menino fechou sonolentamente seus olhos.,NA,NA,NA,NULL
1721993956,0f45b67869d0055beb57655731890dc1,PennController,35,0,distractor,NULL,Scale,respostapractice,Choice,5,1721993849704,X125,NA,8,O menino fechou sonolentamente seus olhos.,NA,NA,NA,NULL
1721993956,0f45b67869d0055beb57655731890dc1,PennController,35,0,distractor,NULL,PennController,35,_Trial_,End,1721993851071,X125,NA,8,O menino fechou sonolentamente seus olhos.,NA,NA,NA,NULL
1721993956,0f45b67869d0055beb57655731890dc1,PennController,23,0,target,NULL,PennController,23,_Trial_,Start,1721993851072,X125,A,12,O fazendeiro limpou gravetos do campo.,gravetos,CNE,CNE+P,NULL
1721993956,0f45b67869d0055beb57655731890dc1,PennController,23,0,target,NULL,Text,sentence,Print,NA,1721993851073,X125,A,12,O fazendeiro limpou gravetos do campo.,gravetos,CNE,CNE+P,NULL
1721993956,0f45b67869d0055beb57655731890dc1,PennController,23,0,target,NULL,Button,Julgar,Click,Click,1721993852770,X125,A,12,O fazendeiro limpou gravetos do campo.,gravetos,CNE,CNE+P,NULL
1721993956,0f45b67869d0055beb57655731890dc1,PennController,23,0,target,NULL,Scale,respostapractice,Choice,5,1721993854121,X125,A,12,O fazendeiro limpou gravetos do campo.,gravetos,CNE,CNE+P,NULL
1721993956,0f45b67869d0055beb57655731890dc1,PennController,23,0,target,NULL,PennController,23,_Trial_,End,1721993856388,X125,A,12,O fazendeiro limpou gravetos do campo.,gravetos,CNE,CNE+P,NULL
1721993956,0f45b67869d0055beb57655731890dc1,PennController,59,0,distractor,NULL,Text,sentence,Print,NA,1721993856390,X125,NA,32,O pai comprou a criança amarela bicicleta.,NA,NA,NA,NULL
1721993956,0f45b67869d0055beb57655731890dc1,PennController,59,0,distractor,NULL,PennController,59,_Trial_,Start,1721993856390,X125,NA,32,O pai comprou a criança amarela bicicleta.,NA,NA,NA,NULL
1721993956,0f45b67869d0055beb57655731890dc1,PennController,59,0,distractor,NULL,Button,Julgar,Click,Click,1721993859104,X125,NA,32,O pai comprou a criança amarela bicicleta.,NA,NA,NA,NULL
1721993956,0f45b67869d0055beb57655731890dc1,PennController,59,0,distractor,NULL,Scale,respostapractice,Choice,1,1721993860520,X125,NA,32,O pai comprou a criança amarela bicicleta.,NA,NA,NA,NULL
1721993956,0f45b67869d0055beb57655731890dc1,PennController,59,0,distractor,NULL,PennController,59,_Trial_,End,1721993862638,X125,NA,32,O pai comprou a criança amarela bicicleta.,NA,NA,NA,NULL
1721993956,0f45b67869d0055beb57655731890dc1,PennController,36,0,distractor,NULL,PennController,36,_Trial_,Start,1721993862639,X125,NA,9,Gia chutou a bola furiosamente.,NA,NA,NA,NULL
1721993956,0f45b67869d0055beb57655731890dc1,PennController,36,0,distractor,NULL,Text,sentence,Print,NA,1721993862640,X125,NA,9,Gia chutou a bola furiosamente.,NA,NA,NA,NULL
1721993956,0f45b67869d0055beb57655731890dc1,PennController,36,0,distractor,NULL,Button,Julgar,Click,Click,1721993864954,X125,NA,9,Gia chutou a bola furiosamente.,NA,NA,NA,NULL
1721993956,0f45b67869d0055beb57655731890dc1,PennController,36,0,distractor,NULL,Scale,respostapractice,Choice,5,1721993866820,X125,NA,9,Gia chutou a bola furiosamente.,NA,NA,NA,NULL
1721993956,0f45b67869d0055beb57655731890dc1,PennController,36,0,distractor,NULL,PennController,36,_Trial_,End,1721993867554,X125,NA,9,Gia chutou a bola furiosamente.,NA,NA,NA,NULL
1721993956,0f45b67869d0055beb57655731890dc1,PennController,12,0,target,NULL,PennController,12,_Trial_,Start,1721993867556,X125,A,1,O cozinheiro colocou abacate no prato.,abacate,CE,CE+S,NULL
1721993956,0f45b67869d0055beb57655731890dc1,PennController,12,0,target,NULL,Text,sentence,Print,NA,1721993867557,X125,A,1,O cozinheiro colocou abacate no prato.,abacate,CE,CE+S,NULL
1721993956,0f45b67869d0055beb57655731890dc1,PennController,12,0,target,NULL,Button,Julgar,Click,Click,1721993871170,X125,A,1,O cozinheiro colocou abacate no prato.,abacate,CE,CE+S,NULL
1721993956,0f45b67869d0055beb57655731890dc1,PennController,12,0,target,NULL,Scale,respostapractice,Choice,5,1721993874286,X125,A,1,O cozinheiro colocou abacate no prato.,abacate,CE,CE+S,NULL
1721993956,0f45b67869d0055beb57655731890dc1,PennController,12,0,target,NULL,PennController,12,_Trial_,End,1721993875638,X125,A,1,O cozinheiro colocou abacate no prato.,abacate,CE,CE+S,NULL
1721993956,0f45b67869d0055beb57655731890dc1,PennController,40,0,distractor,NULL,Text,sentence,Print,NA,1721993875640,X125,NA,13,Jane bebeu ansiosamente.,NA,NA,NA,NULL
1721993956,0f45b67869d0055beb57655731890dc1,PennController,40,0,distractor,NULL,PennController,40,_Trial_,Start,1721993875640,X125,NA,13,Jane bebeu ansiosamente.,NA,NA,NA,NULL
1721993956,0f45b67869d0055beb57655731890dc1,PennController,40,0,distractor,NULL,Button,Julgar,Click,Click,1721993877103,X125,NA,13,Jane bebeu ansiosamente.,NA,NA,NA,NULL
1721993956,0f45b67869d0055beb57655731890dc1,PennController,40,0,distractor,NULL,Scale,respostapractice,Choice,5,1721993879453,X125,NA,13,Jane bebeu ansiosamente.,NA,NA,NA,NULL
1721993956,0f45b67869d0055beb57655731890dc1,PennController,40,0,distractor,NULL,PennController,40,_Trial_,End,1721993880388,X125,NA,13,Jane bebeu ansiosamente.,NA,NA,NA,NULL
1721993956,0f45b67869d0055beb57655731890dc1,PennController,53,0,distractor,NULL,PennController,53,_Trial_,Start,1721993880389,X125,NA,26,Emily derrubou Luca azul celular.,NA,NA,NA,NULL
1721993956,0f45b67869d0055beb57655731890dc1,PennController,53,0,distractor,NULL,Text,sentence,Print,NA,1721993880390,X125,NA,26,Emily derrubou Luca azul celular.,NA,NA,NA,NULL
1721993956,0f45b67869d0055beb57655731890dc1,PennController,53,0,distractor,NULL,Button,Julgar,Click,Click,1721993882753,X125,NA,26,Emily derrubou Luca azul celular.,NA,NA,NA,NULL
1721993956,0f45b67869d0055beb57655731890dc1,PennController,53,0,distractor,NULL,Scale,respostapractice,Choice,1,1721993884619,X125,NA,26,Emily derrubou Luca azul celular.,NA,NA,NA,NULL
1721993956,0f45b67869d0055beb57655731890dc1,PennController,53,0,distractor,NULL,PennController,53,_Trial_,End,1721993885487,X125,NA,26,Emily derrubou Luca azul celular.,NA,NA,NA,NULL
1721993956,0f45b67869d0055beb57655731890dc1,PennController,19,0,target,NULL,Text,sentence,Print,NA,1721993885489,X125,A,8,A vizinha deu travesseiros para o homem.,travesseiros,CNE,CNE+P,NULL
1721993956,0f45b67869d0055beb57655731890dc1,PennController,19,0,target,NULL,PennController,19,_Trial_,Start,1721993885489,X125,A,8,A vizinha deu travesseiros para o homem.,travesseiros,CNE,CNE+P,NULL
1721993956,0f45b67869d0055beb57655731890dc1,PennController,19,0,target,NULL,Button,Julgar,Click,Click,1721993887820,X125,A,8,A vizinha deu travesseiros para o homem.,travesseiros,CNE,CNE+P,NULL
1721993956,0f45b67869d0055beb57655731890dc1,PennController,19,0,target,NULL,Scale,respostapractice,Choice,5,1721993889586,X125,A,8,A vizinha deu travesseiros para o homem.,travesseiros,CNE,CNE+P,NULL
1721993956,0f45b67869d0055beb57655731890dc1,PennController,19,0,target,NULL,PennController,19,_Trial_,End,1721993890537,X125,A,8,A vizinha deu travesseiros para o homem.,travesseiros,CNE,CNE+P,NULL
1721993956,0f45b67869d0055beb57655731890dc1,PennController,29,0,distractor,NULL,Text,sentence,Print,NA,1721993890539,X125,NA,2,Camilla comeu raivozamente o jantar.,NA,NA,NA,NULL
1721993956,0f45b67869d0055beb57655731890dc1,PennController,29,0,distractor,NULL,PennController,29,_Trial_,Start,1721993890539,X125,NA,2,Camilla comeu raivozamente o jantar.,NA,NA,NA,NULL
1721993956,0f45b67869d0055beb57655731890dc1,PennController,29,0,distractor,NULL,Button,Julgar,Click,Click,1721993892020,X125,NA,2,Camilla comeu raivozamente o jantar.,NA,NA,NA,NULL
1721993956,0f45b67869d0055beb57655731890dc1,PennController,29,0,distractor,NULL,Scale,respostapractice,Choice,5,1721993901785,X125,NA,2,Camilla comeu raivozamente o jantar.,NA,NA,NA,NULL
1721993956,0f45b67869d0055beb57655731890dc1,PennController,29,0,distractor,NULL,PennController,29,_Trial_,End,1721993902803,X125,NA,2,Camilla comeu raivozamente o jantar.,NA,NA,NA,NULL
1721993956,0f45b67869d0055beb57655731890dc1,PennController,39,0,distractor,NULL,Text,sentence,Print,NA,1721993902805,X125,NA,12,Marcus ensinou pacientemente.,NA,NA,NA,NULL
1721993956,0f45b67869d0055beb57655731890dc1,PennController,39,0,distractor,NULL,PennController,39,_Trial_,Start,1721993902805,X125,NA,12,Marcus ensinou pacientemente.,NA,NA,NA,NULL
1721993956,0f45b67869d0055beb57655731890dc1,PennController,39,0,distractor,NULL,Button,Julgar,Click,Click,1721993904919,X125,NA,12,Marcus ensinou pacientemente.,NA,NA,NA,NULL
1721993956,0f45b67869d0055beb57655731890dc1,PennController,39,0,distractor,NULL,Scale,respostapractice,Choice,5,1721993906069,X125,NA,12,Marcus ensinou pacientemente.,NA,NA,NA,NULL
1721993956,0f45b67869d0055beb57655731890dc1,PennController,39,0,distractor,NULL,PennController,39,_Trial_,End,1721993907104,X125,NA,12,Marcus ensinou pacientemente.,NA,NA,NA,NULL
1721993956,0f45b67869d0055beb57655731890dc1,PennController,20,0,target,NULL,PennController,20,_Trial_,Start,1721993907105,X125,A,9,A criança jogou ovo na rua.,ovo,CE,CE+S,NULL
1721993956,0f45b67869d0055beb57655731890dc1,PennController,20,0,target,NULL,Text,sentence,Print,NA,1721993907106,X125,A,9,A criança jogou ovo na rua.,ovo,CE,CE+S,NULL
1721993956,0f45b67869d0055beb57655731890dc1,PennController,20,0,target,NULL,Button,Julgar,Click,Click,1721993909169,X125,A,9,A criança jogou ovo na rua.,ovo,CE,CE+S,NULL
1721993956,0f45b67869d0055beb57655731890dc1,PennController,20,0,target,NULL,Scale,respostapractice,Choice,5,1721993910936,X125,A,9,A criança jogou ovo na rua.,ovo,CE,CE+S,NULL
1721993956,0f45b67869d0055beb57655731890dc1,PennController,20,0,target,NULL,PennController,20,_Trial_,End,1721993911820,X125,A,9,A criança jogou ovo na rua.,ovo,CE,CE+S,NULL
# 13. Comments.
1721993956,0f45b67869d0055beb57655731890dc1,PennController,60,0,finalscreen,NULL,PennController,5,_Trial_,Start,1721993911822,NULL
1721993956,0f45b67869d0055beb57655731890dc1,PennController,60,0,finalscreen,NULL,PennController,5,_Trial_,End,1721993955336,NULL
#
# Results on Sat, 27 Jul 2024 17:28:15 GMT
# USER AGENT: Mozilla/5.0 (Windows NT 10.0; Win64; x64) AppleWebKit/537.36 (KHTML, like Gecko) Chrome/126.0.0.0 Safari/537.36
# Design number was non-random = 1
#
# Columns below this comment are as follows:
# 1. Results reception time.
# 2. MD5 hash of participant's IP address.
# 3. Controller name.
# 4. Order number of item.
# 5. Inner element number.
# 6. Label.
# 7. Latin Square Group.
# 8. PennElementType.
# 9. PennElementName.
# 10. Parameter.
# 11. Value.
# 12. EventTime.
# 13. Comments.
1722101295,e113df7974290c11b09c5021df6bcb04,PennController,1,0,tcle,NULL,PennController,0,_Trial_,Start,1722099261028,NULL
1722101295,e113df7974290c11b09c5021df6bcb04,PennController,1,0,tcle,NULL,PennController,0,_Trial_,End,1722099459513,NULL
# 13. ParticipantID.
# 14. Comments.
1722101295,e113df7974290c11b09c5021df6bcb04,PennController,2,0,welcomescreen,NULL,PennController,1,_Trial_,Start,1722099459514,V143,NULL
1722101295,e113df7974290c11b09c5021df6bcb04,PennController,2,0,welcomescreen,NULL,PennController,1,_Trial_,End,1722099466365,V143,NULL
1722101295,e113df7974290c11b09c5021df6bcb04,PennController,3,0,questionnaire,NULL,PennController,2,_Trial_,Start,1722099466366,V143,NULL
1722101295,e113df7974290c11b09c5021df6bcb04,PennController,3,0,questionnaire,NULL,TextInput,idadeResposta,First,,1722099470275,V143,5
1722101295,e113df7974290c11b09c5021df6bcb04,PennController,3,0,questionnaire,NULL,Scale,escolaridadeResposta,Choice,<p style=font-size:20>Ensino superior completo</p>,1722099483141,V143,NULL
1722101295,e113df7974290c11b09c5021df6bcb04,PennController,3,0,questionnaire,NULL,Scale,proficiênciaResposta,Choice,<p style=font-size:20>A2</p>,1722100687645,V143,NULL
1722101295,e113df7974290c11b09c5021df6bcb04,PennController,3,0,questionnaire,NULL,Scale,naturalidadeResposta,Choice,<p style=font-size:20>Brasileiro</p>,1722100692601,V143,NULL
1722101295,e113df7974290c11b09c5021df6bcb04,PennController,3,0,questionnaire,NULL,Scale,línguaResposta,Choice,<p style=font-size:20>Português do Brasil</p>,1722100695589,V143,NULL
1722101295,e113df7974290c11b09c5021df6bcb04,PennController,3,0,questionnaire,NULL,Scale,inglêsResposta,Choice,<p style=font-size:20>Sim</p>,1722100699952,V143,NULL
1722101295,e113df7974290c11b09c5021df6bcb04,PennController,3,0,questionnaire,NULL,Scale,tempoResposta,Choice,<p style=font-size:20>Menos de dois anos</p>,1722100713523,V143,NULL
1722101295,e113df7974290c11b09c5021df6bcb04,PennController,3,0,questionnaire,NULL,Scale,morouResposta,Choice,<p style=font-size:20>Não</p>,1722100719222,V143,NULL
1722101295,e113df7974290c11b09c5021df6bcb04,PennController,3,0,questionnaire,NULL,Scale,letrasResposta,Choice,<p style=font-size:20>Sim</p>,1722100722742,V143,NULL
1722101295,e113df7974290c11b09c5021df6bcb04,PennController,3,0,questionnaire,NULL,TextInput,idadeResposta,Final,55,1722100724456,V143,NULL
1722101295,e113df7974290c11b09c5021df6bcb04,PennController,3,0,questionnaire,NULL,PennController,2,_Trial_,End,1722100724459,V143,NULL
1722101295,e113df7974290c11b09c5021df6bcb04,PennController,4,0,instructions1,NULL,PennController,3,_Trial_,Start,1722100724460,V143,NULL
1722101295,e113df7974290c11b09c5021df6bcb04,PennController,4,0,instructions1,NULL,PennController,3,_Trial_,End,1722100763223,V143,NULL
# 14. group.
# 15. item.
# 16. sentence.
# 17. lexicon.
# 18. noun.
# 19. condition.
# 20. Comments.
1722101295,e113df7974290c11b09c5021df6bcb04,PennController,5,0,practice,NULL,PennController,6,_Trial_,Start,1722100763224,V143,NA,1,O motorista entregou trigo na fazenda.,NA,NA,NA,NULL
1722101295,e113df7974290c11b09c5021df6bcb04,PennController,5,0,practice,NULL,Text,sentence,Print,NA,1722100763225,V143,NA,1,O motorista entregou trigo na fazenda.,NA,NA,NA,NULL
1722101295,e113df7974290c11b09c5021df6bcb04,PennController,5,0,practice,NULL,Button,Julgar,Click,Click,1722100767548,V143,NA,1,O motorista entregou trigo na fazenda.,NA,NA,NA,NULL
1722101295,e113df7974290c11b09c5021df6bcb04,PennController,5,0,practice,NULL,Button,Julgar,Click,Click,1722100771993,V143,NA,1,O motorista entregou trigo na fazenda.,NA,NA,NA,NULL
1722101295,e113df7974290c11b09c5021df6bcb04,PennController,5,0,practice,NULL,Scale,respostapractice,Choice,5,1722100781939,V143,NA,1,O motorista entregou trigo na fazenda.,NA,NA,NA,NULL
1722101295,e113df7974290c11b09c5021df6bcb04,PennController,5,0,practice,NULL,PennController,6,_Trial_,End,1722100783746,V143,NA,1,O motorista entregou trigo na fazenda.,NA,NA,NA,NULL
1722101295,e113df7974290c11b09c5021df6bcb04,PennController,6,0,practice,NULL,Text,sentence,Print,NA,1722100783747,V143,NA,2,Jessica destruiu seu vermelho livro.,NA,NA,NA,NULL
1722101295,e113df7974290c11b09c5021df6bcb04,PennController,6,0,practice,NULL,PennController,7,_Trial_,Start,1722100783747,V143,NA,2,Jessica destruiu seu vermelho livro.,NA,NA,NA,NULL
1722101295,e113df7974290c11b09c5021df6bcb04,PennController,6,0,practice,NULL,Button,Julgar,Click,Click,1722100789946,V143,NA,2,Jessica destruiu seu vermelho livro.,NA,NA,NA,NULL
1722101295,e113df7974290c11b09c5021df6bcb04,PennController,6,0,practice,NULL,Scale,respostapractice,Choice,2,1722100803066,V143,NA,2,Jessica destruiu seu vermelho livro.,NA,NA,NA,NULL
1722101295,e113df7974290c11b09c5021df6bcb04,PennController,6,0,practice,NULL,PennController,7,_Trial_,End,1722100804561,V143,NA,2,Jessica destruiu seu vermelho livro.,NA,NA,NA,NULL
1722101295,e113df7974290c11b09c5021df6bcb04,PennController,7,0,practice,NULL,Text,sentence,Print,NA,1722100804562,V143,NA,3,Tonny juntou o lego de sua irmã do chão.,NA,NA,NA,NULL
1722101295,e113df7974290c11b09c5021df6bcb04,PennController,7,0,practice,NULL,PennController,8,_Trial_,Start,1722100804562,V143,NA,3,Tonny juntou o lego de sua irmã do chão.,NA,NA,NA,NULL
1722101295,e113df7974290c11b09c5021df6bcb04,PennController,7,0,practice,NULL,Button,Julgar,Click,Click,1722100811570,V143,NA,3,Tonny juntou o lego de sua irmã do chão.,NA,NA,NA,NULL
1722101295,e113df7974290c11b09c5021df6bcb04,PennController,7,0,practice,NULL,Scale,respostapractice,Choice,2,1722100822407,V143,NA,3,Tonny juntou o lego de sua irmã do chão.,NA,NA,NA,NULL
1722101295,e113df7974290c11b09c5021df6bcb04,PennController,8,0,practice,NULL,PennController,9,_Trial_,Start,1722100825339,V143,NA,4,O arquiteto construiu a sua mãe casa. ,NA,NA,NA,NULL
1722101295,e113df7974290c11b09c5021df6bcb04,PennController,7,0,practice,NULL,PennController,8,_Trial_,End,1722100825339,V143,NA,3,Tonny juntou o lego de sua irmã do chão.,NA,NA,NA,NULL
1722101295,e113df7974290c11b09c5021df6bcb04,PennController,8,0,practice,NULL,Text,sentence,Print,NA,1722100825340,V143,NA,4,O arquiteto construiu a sua mãe casa. ,NA,NA,NA,NULL
1722101295,e113df7974290c11b09c5021df6bcb04,PennController,8,0,practice,NULL,Button,Julgar,Click,Click,1722100831236,V143,NA,4,O arquiteto construiu a sua mãe casa. ,NA,NA,NA,NULL
1722101295,e113df7974290c11b09c5021df6bcb04,PennController,8,0,practice,NULL,Scale,respostapractice,Choice,1,1722100833542,V143,NA,4,O arquiteto construiu a sua mãe casa. ,NA,NA,NA,NULL
1722101295,e113df7974290c11b09c5021df6bcb04,PennController,9,0,practice,NULL,PennController,10,_Trial_,Start,1722100835008,V143,NA,5,O motorista transferiu as pessoas para a estação.,NA,NA,NA,NULL
1722101295,e113df7974290c11b09c5021df6bcb04,PennController,8,0,practice,NULL,PennController,9,_Trial_,End,1722100835008,V143,NA,4,O arquiteto construiu a sua mãe casa. ,NA,NA,NA,NULL
1722101295,e113df7974290c11b09c5021df6bcb04,PennController,9,0,practice,NULL,Text,sentence,Print,NA,1722100835009,V143,NA,5,O motorista transferiu as pessoas para a estação.,NA,NA,NA,NULL
1722101295,e113df7974290c11b09c5021df6bcb04,PennController,9,0,practice,NULL,Button,Julgar,Click,Click,1722100839091,V143,NA,5,O motorista transferiu as pessoas para a estação.,NA,NA,NA,NULL
1722101295,e113df7974290c11b09c5021df6bcb04,PennController,9,0,practice,NULL,Scale,respostapractice,Choice,5,1722100841288,V143,NA,5,O motorista transferiu as pessoas para a estação.,NA,NA,NA,NULL
1722101295,e113df7974290c11b09c5021df6bcb04,PennController,10,0,practice,NULL,PennController,11,_Trial_,Start,1722100842551,V143,NA,6,Matthew levantou a sua mochila azul.,NA,NA,NA,NULL
1722101295,e113df7974290c11b09c5021df6bcb04,PennController,9,0,practice,NULL,PennController,10,_Trial_,End,1722100842551,V143,NA,5,O motorista transferiu as pessoas para a estação.,NA,NA,NA,NULL
1722101295,e113df7974290c11b09c5021df6bcb04,PennController,10,0,practice,NULL,Text,sentence,Print,NA,1722100842552,V143,NA,6,Matthew levantou a sua mochila azul.,NA,NA,NA,NULL
1722101295,e113df7974290c11b09c5021df6bcb04,PennController,10,0,practice,NULL,Button,Julgar,Click,Click,1722100846779,V143,NA,6,Matthew levantou a sua mochila azul.,NA,NA,NA,NULL
1722101295,e113df7974290c11b09c5021df6bcb04,PennController,10,0,practice,NULL,Scale,respostapractice,Choice,5,1722100849112,V143,NA,6,Matthew levantou a sua mochila azul.,NA,NA,NA,NULL
1722101295,e113df7974290c11b09c5021df6bcb04,PennController,10,0,practice,NULL,PennController,11,_Trial_,End,1722100850244,V143,NA,6,Matthew levantou a sua mochila azul.,NA,NA,NA,NULL
# 13. Comments.
1722101295,e113df7974290c11b09c5021df6bcb04,PennController,11,0,instructions2,NULL,PennController,4,_Trial_,Start,1722100850245,NULL
# 13. ParticipantID.
# 14. group.
# 15. item.
# 16. sentence.
# 17. lexicon.
# 18. noun.
# 19. condition.
# 20. Comments.
1722101295,e113df7974290c11b09c5021df6bcb04,PennController,55,0,distractor,NULL,PennController,55,_Trial_,Start,1722100864747,V143,NA,28,Dylan fez Kacey nova lição de casa.,NA,NA,NA,NULL
# 13. Comments.
1722101295,e113df7974290c11b09c5021df6bcb04,PennController,11,0,instructions2,NULL,PennController,4,_Trial_,End,1722100864747,NULL
# 13. ParticipantID.
# 14. group.
# 15. item.
# 16. sentence.
# 17. lexicon.
# 18. noun.
# 19. condition.
# 20. Comments.
1722101295,e113df7974290c11b09c5021df6bcb04,PennController,55,0,distractor,NULL,Text,sentence,Print,NA,1722100864748,V143,NA,28,Dylan fez Kacey nova lição de casa.,NA,NA,NA,NULL
1722101295,e113df7974290c11b09c5021df6bcb04,PennController,55,0,distractor,NULL,Button,Julgar,Click,Click,1722100871045,V143,NA,28,Dylan fez Kacey nova lição de casa.,NA,NA,NA,NULL
1722101295,e113df7974290c11b09c5021df6bcb04,PennController,55,0,distractor,NULL,Scale,respostapractice,Choice,1,1722100874103,V143,NA,28,Dylan fez Kacey nova lição de casa.,NA,NA,NA,NULL
1722101295,e113df7974290c11b09c5021df6bcb04,PennController,55,0,distractor,NULL,PennController,55,_Trial_,End,1722100875559,V143,NA,28,Dylan fez Kacey nova lição de casa.,NA,NA,NA,NULL
1722101295,e113df7974290c11b09c5021df6bcb04,PennController,44,0,distractor,NULL,Text,sentence,Print,NA,1722100875560,V143,NA,17,Benjamin viu Emma carro vermelho.,NA,NA,NA,NULL
1722101295,e113df7974290c11b09c5021df6bcb04,PennController,44,0,distractor,NULL,PennController,44,_Trial_,Start,1722100875560,V143,NA,17,Benjamin viu Emma carro vermelho.,NA,NA,NA,NULL
1722101295,e113df7974290c11b09c5021df6bcb04,PennController,44,0,distractor,NULL,Button,Julgar,Click,Click,1722100882181,V143,NA,17,Benjamin viu Emma carro vermelho.,NA,NA,NA,NULL
1722101295,e113df7974290c11b09c5021df6bcb04,PennController,44,0,distractor,NULL,Scale,respostapractice,Choice,1,1722100884608,V143,NA,17,Benjamin viu Emma carro vermelho.,NA,NA,NA,NULL
1722101295,e113df7974290c11b09c5021df6bcb04,PennController,23,0,target,NULL,PennController,23,_Trial_,Start,1722100887793,V143,B,12,O fazendeiro limpou uva do campo.,uva,CE,CE+S,NULL
1722101295,e113df7974290c11b09c5021df6bcb04,PennController,44,0,distractor,NULL,PennController,44,_Trial_,End,1722100887793,V143,NA,17,Benjamin viu Emma carro vermelho.,NA,NA,NA,NULL
1722101295,e113df7974290c11b09c5021df6bcb04,PennController,23,0,target,NULL,Text,sentence,Print,NA,1722100887794,V143,B,12,O fazendeiro limpou uva do campo.,uva,CE,CE+S,NULL
1722101295,e113df7974290c11b09c5021df6bcb04,PennController,23,0,target,NULL,Button,Julgar,Click,Click,1722100890930,V143,B,12,O fazendeiro limpou uva do campo.,uva,CE,CE+S,NULL
1722101295,e113df7974290c11b09c5021df6bcb04,PennController,23,0,target,NULL,Scale,respostapractice,Choice,4,1722100893101,V143,B,12,O fazendeiro limpou uva do campo.,uva,CE,CE+S,NULL
1722101295,e113df7974290c11b09c5021df6bcb04,PennController,53,0,distractor,NULL,PennController,53,_Trial_,Start,1722100897184,V143,NA,26,Emily derrubou Luca azul celular.,NA,NA,NA,NULL
1722101295,e113df7974290c11b09c5021df6bcb04,PennController,23,0,target,NULL,PennController,23,_Trial_,End,1722100897184,V143,B,12,O fazendeiro limpou uva do campo.,uva,CE,CE+S,NULL
1722101295,e113df7974290c11b09c5021df6bcb04,PennController,53,0,distractor,NULL,Text,sentence,Print,NA,1722100897185,V143,NA,26,Emily derrubou Luca azul celular.,NA,NA,NA,NULL
1722101295,e113df7974290c11b09c5021df6bcb04,PennController,53,0,distractor,NULL,Button,Julgar,Click,Click,1722100902458,V143,NA,26,Emily derrubou Luca azul celular.,NA,NA,NA,NULL
1722101295,e113df7974290c11b09c5021df6bcb04,PennController,53,0,distractor,NULL,Scale,respostapractice,Choice,1,1722100904321,V143,NA,26,Emily derrubou Luca azul celular.,NA,NA,NA,NULL
1722101295,e113df7974290c11b09c5021df6bcb04,PennController,32,0,distractor,NULL,PennController,32,_Trial_,Start,1722100905494,V143,NA,5,Vlad bebeu rapidamente vinho.,NA,NA,NA,NULL
1722101295,e113df7974290c11b09c5021df6bcb04,PennController,53,0,distractor,NULL,PennController,53,_Trial_,End,1722100905494,V143,NA,26,Emily derrubou Luca azul celular.,NA,NA,NA,NULL
1722101295,e113df7974290c11b09c5021df6bcb04,PennController,32,0,distractor,NULL,Text,sentence,Print,NA,1722100905495,V143,NA,5,Vlad bebeu rapidamente vinho.,NA,NA,NA,NULL
1722101295,e113df7974290c11b09c5021df6bcb04,PennController,32,0,distractor,NULL,Button,Julgar,Click,Click,1722100909328,V143,NA,5,Vlad bebeu rapidamente vinho.,NA,NA,NA,NULL
1722101295,e113df7974290c11b09c5021df6bcb04,PennController,32,0,distractor,NULL,Scale,respostapractice,Choice,5,1722100911078,V143,NA,5,Vlad bebeu rapidamente vinho.,NA,NA,NA,NULL
1722101295,e113df7974290c11b09c5021df6bcb04,PennController,32,0,distractor,NULL,PennController,32,_Trial_,End,1722100912667,V143,NA,5,Vlad bebeu rapidamente vinho.,NA,NA,NA,NULL
1722101295,e113df7974290c11b09c5021df6bcb04,PennController,27,0,target,NULL,Text,sentence,Print,NA,1722100912668,V143,B,16,O menino viu cenoura no jardim.,cenoura,CE,CE+S,NULL
1722101295,e113df7974290c11b09c5021df6bcb04,PennController,27,0,target,NULL,PennController,27,_Trial_,Start,1722100912668,V143,B,16,O menino viu cenoura no jardim.,cenoura,CE,CE+S,NULL
1722101295,e113df7974290c11b09c5021df6bcb04,PennController,27,0,target,NULL,Button,Julgar,Click,Click,1722100916145,V143,B,16,O menino viu cenoura no jardim.,cenoura,CE,CE+S,NULL
1722101295,e113df7974290c11b09c5021df6bcb04,PennController,27,0,target,NULL,Scale,respostapractice,Choice,5,1722100918827,V143,B,16,O menino viu cenoura no jardim.,cenoura,CE,CE+S,NULL
1722101295,e113df7974290c11b09c5021df6bcb04,PennController,28,0,distractor,NULL,PennController,28,_Trial_,Start,1722100919991,V143,NA,1,John viu feliz Mary.,NA,NA,NA,NULL
1722101295,e113df7974290c11b09c5021df6bcb04,PennController,27,0,target,NULL,PennController,27,_Trial_,End,1722100919991,V143,B,16,O menino viu cenoura no jardim.,cenoura,CE,CE+S,NULL
1722101295,e113df7974290c11b09c5021df6bcb04,PennController,28,0,distractor,NULL,Text,sentence,Print,NA,1722100919992,V143,NA,1,John viu feliz Mary.,NA,NA,NA,NULL
1722101295,e113df7974290c11b09c5021df6bcb04,PennController,28,0,distractor,NULL,Button,Julgar,Click,Click,1722100926393,V143,NA,1,John viu feliz Mary.,NA,NA,NA,NULL
1722101295,e113df7974290c11b09c5021df6bcb04,PennController,28,0,distractor,NULL,Scale,respostapractice,Choice,2,1722100929219,V143,NA,1,John viu feliz Mary.,NA,NA,NA,NULL
1722101295,e113df7974290c11b09c5021df6bcb04,PennController,37,0,distractor,NULL,PennController,37,_Trial_,Start,1722100930577,V143,NA,10,Tom acordou preguiçosamente.,NA,NA,NA,NULL
1722101295,e113df7974290c11b09c5021df6bcb04,PennController,28,0,distractor,NULL,PennController,28,_Trial_,End,1722100930577,V143,NA,1,John viu feliz Mary.,NA,NA,NA,NULL
1722101295,e113df7974290c11b09c5021df6bcb04,PennController,37,0,distractor,NULL,Text,sentence,Print,NA,1722100930578,V143,NA,10,Tom acordou preguiçosamente.,NA,NA,NA,NULL
1722101295,e113df7974290c11b09c5021df6bcb04,PennController,37,0,distractor,NULL,Button,Julgar,Click,Click,1722100933453,V143,NA,10,Tom acordou preguiçosamente.,NA,NA,NA,NULL
1722101295,e113df7974290c11b09c5021df6bcb04,PennController,37,0,distractor,NULL,Scale,respostapractice,Choice,5,1722100935119,V143,NA,10,Tom acordou preguiçosamente.,NA,NA,NA,NULL
1722101295,e113df7974290c11b09c5021df6bcb04,PennController,37,0,distractor,NULL,PennController,37,_Trial_,End,1722100936284,V143,NA,10,Tom acordou preguiçosamente.,NA,NA,NA,NULL
1722101295,e113df7974290c11b09c5021df6bcb04,PennController,12,0,target,NULL,PennController,12,_Trial_,Start,1722100936285,V143,B,1,O cozinheiro colocou colher no prato.,colher,CNE,CNE+S,NULL
1722101295,e113df7974290c11b09c5021df6bcb04,PennController,12,0,target,NULL,Text,sentence,Print,NA,1722100936286,V143,B,1,O cozinheiro colocou colher no prato.,colher,CNE,CNE+S,NULL
1722101295,e113df7974290c11b09c5021df6bcb04,PennController,12,0,target,NULL,Button,Julgar,Click,Click,1722100949819,V143,B,1,O cozinheiro colocou colher no prato.,colher,CNE,CNE+S,NULL
1722101295,e113df7974290c11b09c5021df6bcb04,PennController,12,0,target,NULL,Scale,respostapractice,Choice,5,1722100952238,V143,B,1,O cozinheiro colocou colher no prato.,colher,CNE,CNE+S,NULL
1722101295,e113df7974290c11b09c5021df6bcb04,PennController,45,0,distractor,NULL,PennController,45,_Trial_,Start,1722100953404,V143,NA,18,Scarlet estragou seu computador novo.,NA,NA,NA,NULL
1722101295,e113df7974290c11b09c5021df6bcb04,PennController,12,0,target,NULL,PennController,12,_Trial_,End,1722100953404,V143,B,1,O cozinheiro colocou colher no prato.,colher,CNE,CNE+S,NULL
1722101295,e113df7974290c11b09c5021df6bcb04,PennController,45,0,distractor,NULL,Text,sentence,Print,NA,1722100953405,V143,NA,18,Scarlet estragou seu computador novo.,NA,NA,NA,NULL
1722101295,e113df7974290c11b09c5021df6bcb04,PennController,45,0,distractor,NULL,Button,Julgar,Click,Click,1722100956839,V143,NA,18,Scarlet estragou seu computador novo.,NA,NA,NA,NULL
1722101295,e113df7974290c11b09c5021df6bcb04,PennController,45,0,distractor,NULL,Scale,respostapractice,Choice,5,1722100958372,V143,NA,18,Scarlet estragou seu computador novo.,NA,NA,NA,NULL
1722101295,e113df7974290c11b09c5021df6bcb04,PennController,45,0,distractor,NULL,PennController,45,_Trial_,End,1722100959587,V143,NA,18,Scarlet estragou seu computador novo.,NA,NA,NA,NULL
1722101295,e113df7974290c11b09c5021df6bcb04,PennController,40,0,distractor,NULL,PennController,40,_Trial_,Start,1722100959588,V143,NA,13,Jane bebeu ansiosamente.,NA,NA,NA,NULL
1722101295,e113df7974290c11b09c5021df6bcb04,PennController,40,0,distractor,NULL,Text,sentence,Print,NA,1722100959589,V143,NA,13,Jane bebeu ansiosamente.,NA,NA,NA,NULL
1722101295,e113df7974290c11b09c5021df6bcb04,PennController,40,0,distractor,NULL,Button,Julgar,Click,Click,1722100962573,V143,NA,13,Jane bebeu ansiosamente.,NA,NA,NA,NULL
1722101295,e113df7974290c11b09c5021df6bcb04,PennController,40,0,distractor,NULL,Scale,respostapractice,Choice,5,1722100964042,V143,NA,13,Jane bebeu ansiosamente.,NA,NA,NA,NULL
1722101295,e113df7974290c11b09c5021df6bcb04,PennController,40,0,distractor,NULL,PennController,40,_Trial_,End,1722100965167,V143,NA,13,Jane bebeu ansiosamente.,NA,NA,NA,NULL
1722101295,e113df7974290c11b09c5021df6bcb04,PennController,22,0,target,NULL,PennController,22,_Trial_,Start,1722100965168,V143,B,11,A veterinária deixou madeiras na floresta.,madeiras,CNE,CNE+P,NULL
1722101295,e113df7974290c11b09c5021df6bcb04,PennController,22,0,target,NULL,Text,sentence,Print,NA,1722100965169,V143,B,11,A veterinária deixou madeiras na floresta.,madeiras,CNE,CNE+P,NULL
1722101295,e113df7974290c11b09c5021df6bcb04,PennController,22,0,target,NULL,Button,Julgar,Click,Click,1722100968785,V143,B,11,A veterinária deixou madeiras na floresta.,madeiras,CNE,CNE+P,NULL
1722101295,e113df7974290c11b09c5021df6bcb04,PennController,22,0,target,NULL,Scale,respostapractice,Choice,5,1722100970858,V143,B,11,A veterinária deixou madeiras na floresta.,madeiras,CNE,CNE+P,NULL
1722101295,e113df7974290c11b09c5021df6bcb04,PennController,22,0,target,NULL,PennController,22,_Trial_,End,1722100972039,V143,B,11,A veterinária deixou madeiras na floresta.,madeiras,CNE,CNE+P,NULL
1722101295,e113df7974290c11b09c5021df6bcb04,PennController,35,0,distractor,NULL,Text,sentence,Print,NA,1722100972040,V143,NA,8,O menino fechou sonolentamente seus olhos.,NA,NA,NA,NULL
1722101295,e113df7974290c11b09c5021df6bcb04,PennController,35,0,distractor,NULL,PennController,35,_Trial_,Start,1722100972040,V143,NA,8,O menino fechou sonolentamente seus olhos.,NA,NA,NA,NULL
1722101295,e113df7974290c11b09c5021df6bcb04,PennController,35,0,distractor,NULL,Button,Julgar,Click,Click,1722100975570,V143,NA,8,O menino fechou sonolentamente seus olhos.,NA,NA,NA,NULL
1722101295,e113df7974290c11b09c5021df6bcb04,PennController,35,0,distractor,NULL,Scale,respostapractice,Choice,5,1722100978558,V143,NA,8,O menino fechou sonolentamente seus olhos.,NA,NA,NA,NULL
1722101295,e113df7974290c11b09c5021df6bcb04,PennController,39,0,distractor,NULL,PennController,39,_Trial_,Start,1722100979699,V143,NA,12,Marcus ensinou pacientemente.,NA,NA,NA,NULL
1722101295,e113df7974290c11b09c5021df6bcb04,PennController,35,0,distractor,NULL,PennController,35,_Trial_,End,1722100979699,V143,NA,8,O menino fechou sonolentamente seus olhos.,NA,NA,NA,NULL
1722101295,e113df7974290c11b09c5021df6bcb04,PennController,39,0,distractor,NULL,Text,sentence,Print,NA,1722100979700,V143,NA,12,Marcus ensinou pacientemente.,NA,NA,NA,NULL
1722101295,e113df7974290c11b09c5021df6bcb04,PennController,39,0,distractor,NULL,Button,Julgar,Click,Click,1722100982156,V143,NA,12,Marcus ensinou pacientemente.,NA,NA,NA,NULL
1722101295,e113df7974290c11b09c5021df6bcb04,PennController,39,0,distractor,NULL,Scale,respostapractice,Choice,5,1722100984278,V143,NA,12,Marcus ensinou pacientemente.,NA,NA,NA,NULL
1722101295,e113df7974290c11b09c5021df6bcb04,PennController,13,0,target,NULL,PennController,13,_Trial_,Start,1722100985411,V143,B,2,A mãe colocou batatas no vaso.,batatas,CE,CE+P,NULL
1722101295,e113df7974290c11b09c5021df6bcb04,PennController,39,0,distractor,NULL,PennController,39,_Trial_,End,1722100985411,V143,NA,12,Marcus ensinou pacientemente.,NA,NA,NA,NULL
1722101295,e113df7974290c11b09c5021df6bcb04,PennController,13,0,target,NULL,Text,sentence,Print,NA,1722100985412,V143,B,2,A mãe colocou batatas no vaso.,batatas,CE,CE+P,NULL
1722101295,e113df7974290c11b09c5021df6bcb04,PennController,13,0,target,NULL,Button,Julgar,Click,Click,1722100987992,V143,B,2,A mãe colocou batatas no vaso.,batatas,CE,CE+P,NULL
1722101295,e113df7974290c11b09c5021df6bcb04,PennController,13,0,target,NULL,Scale,respostapractice,Choice,5,1722100991655,V143,B,2,A mãe colocou batatas no vaso.,batatas,CE,CE+P,NULL
1722101295,e113df7974290c11b09c5021df6bcb04,PennController,41,0,distractor,NULL,PennController,41,_Trial_,Start,1722100993015,V143,NA,14,Will dirigiu lentamente.,NA,NA,NA,NULL
1722101295,e113df7974290c11b09c5021df6bcb04,PennController,13,0,target,NULL,PennController,13,_Trial_,End,1722100993015,V143,B,2,A mãe colocou batatas no vaso.,batatas,CE,CE+P,NULL
1722101295,e113df7974290c11b09c5021df6bcb04,PennController,41,0,distractor,NULL,Text,sentence,Print,NA,1722100993016,V143,NA,14,Will dirigiu lentamente.,NA,NA,NA,NULL
1722101295,e113df7974290c11b09c5021df6bcb04,PennController,41,0,distractor,NULL,Button,Julgar,Click,Click,1722100995620,V143,NA,14,Will dirigiu lentamente.,NA,NA,NA,NULL
1722101295,e113df7974290c11b09c5021df6bcb04,PennController,41,0,distractor,NULL,Scale,respostapractice,Choice,5,1722100998122,V143,NA,14,Will dirigiu lentamente.,NA,NA,NA,NULL
1722101295,e113df7974290c11b09c5021df6bcb04,PennController,52,0,distractor,NULL,PennController,52,_Trial_,Start,1722100999281,V143,NA,25,Harper limpou Chloe nova casa.,NA,NA,NA,NULL
1722101295,e113df7974290c11b09c5021df6bcb04,PennController,41,0,distractor,NULL,PennController,41,_Trial_,End,1722100999281,V143,NA,14,Will dirigiu lentamente.,NA,NA,NA,NULL
1722101295,e113df7974290c11b09c5021df6bcb04,PennController,52,0,distractor,NULL,Text,sentence,Print,NA,1722100999282,V143,NA,25,Harper limpou Chloe nova casa.,NA,NA,NA,NULL
1722101295,e113df7974290c11b09c5021df6bcb04,PennController,52,0,distractor,NULL,Button,Julgar,Click,Click,1722101003147,V143,NA,25,Harper limpou Chloe nova casa.,NA,NA,NA,NULL
1722101295,e113df7974290c11b09c5021df6bcb04,PennController,52,0,distractor,NULL,Scale,respostapractice,Choice,1,1722101005199,V143,NA,25,Harper limpou Chloe nova casa.,NA,NA,NA,NULL
1722101295,e113df7974290c11b09c5021df6bcb04,PennController,17,0,target,NULL,PennController,17,_Trial_,Start,1722101006736,V143,B,6,O homem vendeu abacaxis no supermercado.,abacaxis,CE,CE+P,NULL
1722101295,e113df7974290c11b09c5021df6bcb04,PennController,52,0,distractor,NULL,PennController,52,_Trial_,End,1722101006736,V143,NA,25,Harper limpou Chloe nova casa.,NA,NA,NA,NULL
1722101295,e113df7974290c11b09c5021df6bcb04,PennController,17,0,target,NULL,Text,sentence,Print,NA,1722101006737,V143,B,6,O homem vendeu abacaxis no supermercado.,abacaxis,CE,CE+P,NULL
1722101295,e113df7974290c11b09c5021df6bcb04,PennController,17,0,target,NULL,Button,Julgar,Click,Click,1722101009512,V143,B,6,O homem vendeu abacaxis no supermercado.,abacaxis,CE,CE+P,NULL
1722101295,e113df7974290c11b09c5021df6bcb04,PennController,17,0,target,NULL,Scale,respostapractice,Choice,5,1722101011363,V143,B,6,O homem vendeu abacaxis no supermercado.,abacaxis,CE,CE+P,NULL
1722101295,e113df7974290c11b09c5021df6bcb04,PennController,17,0,target,NULL,PennController,17,_Trial_,End,1722101012593,V143,B,6,O homem vendeu abacaxis no supermercado.,abacaxis,CE,CE+P,NULL
1722101295,e113df7974290c11b09c5021df6bcb04,PennController,43,0,distractor,NULL,Text,sentence,Print,NA,1722101012594,V143,NA,16,O caminhoneiro abraçou seu cachorro gentilmente.,NA,NA,NA,NULL
1722101295,e113df7974290c11b09c5021df6bcb04,PennController,43,0,distractor,NULL,PennController,43,_Trial_,Start,1722101012594,V143,NA,16,O caminhoneiro abraçou seu cachorro gentilmente.,NA,NA,NA,NULL
1722101295,e113df7974290c11b09c5021df6bcb04,PennController,43,0,distractor,NULL,Button,Julgar,Click,Click,1722101015288,V143,NA,16,O caminhoneiro abraçou seu cachorro gentilmente.,NA,NA,NA,NULL
1722101295,e113df7974290c11b09c5021df6bcb04,PennController,43,0,distractor,NULL,Scale,respostapractice,Choice,5,1722101016854,V143,NA,16,O caminhoneiro abraçou seu cachorro gentilmente.,NA,NA,NA,NULL
1722101295,e113df7974290c11b09c5021df6bcb04,PennController,43,0,distractor,NULL,PennController,43,_Trial_,End,1722101018642,V143,NA,16,O caminhoneiro abraçou seu cachorro gentilmente.,NA,NA,NA,NULL
1722101295,e113df7974290c11b09c5021df6bcb04,PennController,46,0,distractor,NULL,PennController,46,_Trial_,Start,1722101018643,V143,NA,19,Liam esbarrou na Michaela bicicleta azul.,NA,NA,NA,NULL
1722101295,e113df7974290c11b09c5021df6bcb04,PennController,46,0,distractor,NULL,Text,sentence,Print,NA,1722101018644,V143,NA,19,Liam esbarrou na Michaela bicicleta azul.,NA,NA,NA,NULL
1722101295,e113df7974290c11b09c5021df6bcb04,PennController,46,0,distractor,NULL,Button,Julgar,Click,Click,1722101025237,V143,NA,19,Liam esbarrou na Michaela bicicleta azul.,NA,NA,NA,NULL
1722101295,e113df7974290c11b09c5021df6bcb04,PennController,46,0,distractor,NULL,Scale,respostapractice,Choice,2,1722101026940,V143,NA,19,Liam esbarrou na Michaela bicicleta azul.,NA,NA,NA,NULL
1722101295,e113df7974290c11b09c5021df6bcb04,PennController,24,0,target,NULL,PennController,24,_Trial_,Start,1722101028500,V143,B,13,O rancheiro pegou pá da fazenda.,pá,CNE,CNE+S,NULL
1722101295,e113df7974290c11b09c5021df6bcb04,PennController,46,0,distractor,NULL,PennController,46,_Trial_,End,1722101028500,V143,NA,19,Liam esbarrou na Michaela bicicleta azul.,NA,NA,NA,NULL
1722101295,e113df7974290c11b09c5021df6bcb04,PennController,24,0,target,NULL,Text,sentence,Print,NA,1722101028501,V143,B,13,O rancheiro pegou pá da fazenda.,pá,CNE,CNE+S,NULL
1722101295,e113df7974290c11b09c5021df6bcb04,PennController,24,0,target,NULL,Button,Julgar,Click,Click,1722101032484,V143,B,13,O rancheiro pegou pá da fazenda.,pá,CNE,CNE+S,NULL
1722101295,e113df7974290c11b09c5021df6bcb04,PennController,24,0,target,NULL,Scale,respostapractice,Choice,5,1722101034720,V143,B,13,O rancheiro pegou pá da fazenda.,pá,CNE,CNE+S,NULL
1722101295,e113df7974290c11b09c5021df6bcb04,PennController,29,0,distractor,NULL,PennController,29,_Trial_,Start,1722101035877,V143,NA,2,Camilla comeu raivozamente o jantar.,NA,NA,NA,NULL
1722101295,e113df7974290c11b09c5021df6bcb04,PennController,24,0,target,NULL,PennController,24,_Trial_,End,1722101035877,V143,B,13,O rancheiro pegou pá da fazenda.,pá,CNE,CNE+S,NULL
1722101295,e113df7974290c11b09c5021df6bcb04,PennController,29,0,distractor,NULL,Text,sentence,Print,NA,1722101035878,V143,NA,2,Camilla comeu raivozamente o jantar.,NA,NA,NA,NULL
1722101295,e113df7974290c11b09c5021df6bcb04,PennController,29,0,distractor,NULL,Button,Julgar,Click,Click,1722101038901,V143,NA,2,Camilla comeu raivozamente o jantar.,NA,NA,NA,NULL
1722101295,e113df7974290c11b09c5021df6bcb04,PennController,29,0,distractor,NULL,Scale,respostapractice,Choice,5,1722101040703,V143,NA,2,Camilla comeu raivozamente o jantar.,NA,NA,NA,NULL
1722101295,e113df7974290c11b09c5021df6bcb04,PennController,29,0,distractor,NULL,PennController,29,_Trial_,End,1722101041873,V143,NA,2,Camilla comeu raivozamente o jantar.,NA,NA,NA,NULL
1722101295,e113df7974290c11b09c5021df6bcb04,PennController,30,0,distractor,NULL,PennController,30,_Trial_,Start,1722101041874,V143,NA,3,Rod escreveu quietamente um poema.,NA,NA,NA,NULL
1722101295,e113df7974290c11b09c5021df6bcb04,PennController,30,0,distractor,NULL,Text,sentence,Print,NA,1722101041875,V143,NA,3,Rod escreveu quietamente um poema.,NA,NA,NA,NULL
1722101295,e113df7974290c11b09c5021df6bcb04,PennController,30,0,distractor,NULL,Button,Julgar,Click,Click,1722101044569,V143,NA,3,Rod escreveu quietamente um poema.,NA,NA,NA,NULL
1722101295,e113df7974290c11b09c5021df6bcb04,PennController,30,0,distractor,NULL,Scale,respostapractice,Choice,5,1722101046110,V143,NA,3,Rod escreveu quietamente um poema.,NA,NA,NA,NULL
1722101295,e113df7974290c11b09c5021df6bcb04,PennController,19,0,target,NULL,PennController,19,_Trial_,Start,1722101047251,V143,B,8,A vizinha deu laranja para o homem.,laranja,CE,CE+S,NULL
1722101295,e113df7974290c11b09c5021df6bcb04,PennController,30,0,distractor,NULL,PennController,30,_Trial_,End,1722101047251,V143,NA,3,Rod escreveu quietamente um poema.,NA,NA,NA,NULL
1722101295,e113df7974290c11b09c5021df6bcb04,PennController,19,0,target,NULL,Text,sentence,Print,NA,1722101047252,V143,B,8,A vizinha deu laranja para o homem.,laranja,CE,CE+S,NULL
1722101295,e113df7974290c11b09c5021df6bcb04,PennController,19,0,target,NULL,Button,Julgar,Click,Click,1722101049817,V143,B,8,A vizinha deu laranja para o homem.,laranja,CE,CE+S,NULL
1722101295,e113df7974290c11b09c5021df6bcb04,PennController,19,0,target,NULL,Scale,respostapractice,Choice,5,1722101051544,V143,B,8,A vizinha deu laranja para o homem.,laranja,CE,CE+S,NULL
1722101295,e113df7974290c11b09c5021df6bcb04,PennController,19,0,target,NULL,PennController,19,_Trial_,End,1722101052764,V143,B,8,A vizinha deu laranja para o homem.,laranja,CE,CE+S,NULL
1722101295,e113df7974290c11b09c5021df6bcb04,PennController,54,0,distractor,NULL,Text,sentence,Print,NA,1722101052765,V143,NA,27,Ian encontrou Renne rosa bolsa.,NA,NA,NA,NULL
1722101295,e113df7974290c11b09c5021df6bcb04,PennController,54,0,distractor,NULL,PennController,54,_Trial_,Start,1722101052765,V143,NA,27,Ian encontrou Renne rosa bolsa.,NA,NA,NA,NULL
1722101295,e113df7974290c11b09c5021df6bcb04,PennController,54,0,distractor,NULL,Button,Julgar,Click,Click,1722101055816,V143,NA,27,Ian encontrou Renne rosa bolsa.,NA,NA,NA,NULL
1722101295,e113df7974290c11b09c5021df6bcb04,PennController,54,0,distractor,NULL,Scale,respostapractice,Choice,1,1722101057643,V143,NA,27,Ian encontrou Renne rosa bolsa.,NA,NA,NA,NULL
1722101295,e113df7974290c11b09c5021df6bcb04,PennController,54,0,distractor,NULL,PennController,54,_Trial_,End,1722101058843,V143,NA,27,Ian encontrou Renne rosa bolsa.,NA,NA,NA,NULL
1722101295,e113df7974290c11b09c5021df6bcb04,PennController,48,0,distractor,NULL,PennController,48,_Trial_,Start,1722101058844,V143,NA,21,Ava quebrou Noah garrafa branca.,NA,NA,NA,NULL
1722101295,e113df7974290c11b09c5021df6bcb04,PennController,48,0,distractor,NULL,Text,sentence,Print,NA,1722101058845,V143,NA,21,Ava quebrou Noah garrafa branca.,NA,NA,NA,NULL
1722101295,e113df7974290c11b09c5021df6bcb04,PennController,48,0,distractor,NULL,Button,Julgar,Click,Click,1722101062250,V143,NA,21,Ava quebrou Noah garrafa branca.,NA,NA,NA,NULL
1722101295,e113df7974290c11b09c5021df6bcb04,PennController,48,0,distractor,NULL,Scale,respostapractice,Choice,1,1722101065917,V143,NA,21,Ava quebrou Noah garrafa branca.,NA,NA,NA,NULL
1722101295,e113df7974290c11b09c5021df6bcb04,PennController,14,0,target,NULL,PennController,14,_Trial_,Start,1722101067319,V143,B,3,O professor trouxe canetas da escola.,canetas,CNE,CNE+P,NULL
1722101295,e113df7974290c11b09c5021df6bcb04,PennController,48,0,distractor,NULL,PennController,48,_Trial_,End,1722101067319,V143,NA,21,Ava quebrou Noah garrafa branca.,NA,NA,NA,NULL
1722101295,e113df7974290c11b09c5021df6bcb04,PennController,14,0,target,NULL,Text,sentence,Print,NA,1722101067320,V143,B,3,O professor trouxe canetas da escola.,canetas,CNE,CNE+P,NULL
1722101295,e113df7974290c11b09c5021df6bcb04,PennController,14,0,target,NULL,Button,Julgar,Click,Click,1722101070061,V143,B,3,O professor trouxe canetas da escola.,canetas,CNE,CNE+P,NULL
1722101295,e113df7974290c11b09c5021df6bcb04,PennController,14,0,target,NULL,Scale,respostapractice,Choice,5,1722101071860,V143,B,3,O professor trouxe canetas da escola.,canetas,CNE,CNE+P,NULL
1722101295,e113df7974290c11b09c5021df6bcb04,PennController,14,0,target,NULL,PennController,14,_Trial_,End,1722101073147,V143,B,3,O professor trouxe canetas da escola.,canetas,CNE,CNE+P,NULL
1722101295,e113df7974290c11b09c5021df6bcb04,PennController,47,0,distractor,NULL,Text,sentence,Print,NA,1722101073148,V143,NA,20,Zoe comeu uma maçã verde.,NA,NA,NA,NULL
1722101295,e113df7974290c11b09c5021df6bcb04,PennController,47,0,distractor,NULL,PennController,47,_Trial_,Start,1722101073148,V143,NA,20,Zoe comeu uma maçã verde.,NA,NA,NA,NULL
1722101295,e113df7974290c11b09c5021df6bcb04,PennController,47,0,distractor,NULL,Button,Julgar,Click,Click,1722101075620,V143,NA,20,Zoe comeu uma maçã verde.,NA,NA,NA,NULL
1722101295,e113df7974290c11b09c5021df6bcb04,PennController,47,0,distractor,NULL,Scale,respostapractice,Choice,5,1722101077221,V143,NA,20,Zoe comeu uma maçã verde.,NA,NA,NA,NULL
1722101295,e113df7974290c11b09c5021df6bcb04,PennController,47,0,distractor,NULL,PennController,47,_Trial_,End,1722101078613,V143,NA,20,Zoe comeu uma maçã verde.,NA,NA,NA,NULL
1722101295,e113df7974290c11b09c5021df6bcb04,PennController,56,0,distractor,NULL,PennController,56,_Trial_,Start,1722101078614,V143,NA,29,Ethan arranhou Madison madeira mesa.,NA,NA,NA,NULL
1722101295,e113df7974290c11b09c5021df6bcb04,PennController,56,0,distractor,NULL,Text,sentence,Print,NA,1722101078615,V143,NA,29,Ethan arranhou Madison madeira mesa.,NA,NA,NA,NULL
1722101295,e113df7974290c11b09c5021df6bcb04,PennController,56,0,distractor,NULL,Button,Julgar,Click,Click,1722101084888,V143,NA,29,Ethan arranhou Madison madeira mesa.,NA,NA,NA,NULL
1722101295,e113df7974290c11b09c5021df6bcb04,PennController,56,0,distractor,NULL,Scale,respostapractice,Choice,2,1722101086365,V143,NA,29,Ethan arranhou Madison madeira mesa.,NA,NA,NA,NULL
1722101295,e113df7974290c11b09c5021df6bcb04,PennController,21,0,target,NULL,PennController,21,_Trial_,Start,1722101087442,V143,B,10,O trabalhador vendeu melancias na praia.,melancias,CE,CE+P,NULL
1722101295,e113df7974290c11b09c5021df6bcb04,PennController,56,0,distractor,NULL,PennController,56,_Trial_,End,1722101087442,V143,NA,29,Ethan arranhou Madison madeira mesa.,NA,NA,NA,NULL
1722101295,e113df7974290c11b09c5021df6bcb04,PennController,21,0,target,NULL,Text,sentence,Print,NA,1722101087443,V143,B,10,O trabalhador vendeu melancias na praia.,melancias,CE,CE+P,NULL
1722101295,e113df7974290c11b09c5021df6bcb04,PennController,21,0,target,NULL,Button,Julgar,Click,Click,1722101090251,V143,B,10,O trabalhador vendeu melancias na praia.,melancias,CE,CE+P,NULL
1722101295,e113df7974290c11b09c5021df6bcb04,PennController,21,0,target,NULL,Scale,respostapractice,Choice,5,1722101091979,V143,B,10,O trabalhador vendeu melancias na praia.,melancias,CE,CE+P,NULL
1722101295,e113df7974290c11b09c5021df6bcb04,PennController,49,0,distractor,NULL,PennController,49,_Trial_,Start,1722101093350,V143,NA,22,Charlotte comprou Calvin casa velha.,NA,NA,NA,NULL
1722101295,e113df7974290c11b09c5021df6bcb04,PennController,21,0,target,NULL,PennController,21,_Trial_,End,1722101093350,V143,B,10,O trabalhador vendeu melancias na praia.,melancias,CE,CE+P,NULL
1722101295,e113df7974290c11b09c5021df6bcb04,PennController,49,0,distractor,NULL,Text,sentence,Print,NA,1722101093351,V143,NA,22,Charlotte comprou Calvin casa velha.,NA,NA,NA,NULL
1722101295,e113df7974290c11b09c5021df6bcb04,PennController,49,0,distractor,NULL,Button,Julgar,Click,Click,1722101097487,V143,NA,22,Charlotte comprou Calvin casa velha.,NA,NA,NA,NULL
1722101295,e113df7974290c11b09c5021df6bcb04,PennController,49,0,distractor,NULL,Scale,respostapractice,Choice,1,1722101116416,V143,NA,22,Charlotte comprou Calvin casa velha.,NA,NA,NA,NULL
1722101295,e113df7974290c11b09c5021df6bcb04,PennController,49,0,distractor,NULL,PennController,49,_Trial_,End,1722101117089,V143,NA,22,Charlotte comprou Calvin casa velha.,NA,NA,NA,NULL
1722101295,e113df7974290c11b09c5021df6bcb04,PennController,42,0,distractor,NULL,Text,sentence,Print,NA,1722101117090,V143,NA,15,A senhora apresentou confidentemente.,NA,NA,NA,NULL
1722101295,e113df7974290c11b09c5021df6bcb04,PennController,42,0,distractor,NULL,PennController,42,_Trial_,Start,1722101117090,V143,NA,15,A senhora apresentou confidentemente.,NA,NA,NA,NULL
1722101295,e113df7974290c11b09c5021df6bcb04,PennController,42,0,distractor,NULL,Button,Julgar,Click,Click,1722101124802,V143,NA,15,A senhora apresentou confidentemente.,NA,NA,NA,NULL
1722101295,e113df7974290c11b09c5021df6bcb04,PennController,42,0,distractor,NULL,Scale,respostapractice,Choice,5,1722101127126,V143,NA,15,A senhora apresentou confidentemente.,NA,NA,NA,NULL
1722101295,e113df7974290c11b09c5021df6bcb04,PennController,42,0,distractor,NULL,PennController,42,_Trial_,End,1722101133443,V143,NA,15,A senhora apresentou confidentemente.,NA,NA,NA,NULL
1722101295,e113df7974290c11b09c5021df6bcb04,PennController,18,0,target,NULL,Text,sentence,Print,NA,1722101133444,V143,B,7,O adolescente derrubou pratos na cozinha.,pratos,CNE,CNE+P,NULL
1722101295,e113df7974290c11b09c5021df6bcb04,PennController,18,0,target,NULL,PennController,18,_Trial_,Start,1722101133444,V143,B,7,O adolescente derrubou pratos na cozinha.,pratos,CNE,CNE+P,NULL
1722101295,e113df7974290c11b09c5021df6bcb04,PennController,18,0,target,NULL,Button,Julgar,Click,Click,1722101137627,V143,B,7,O adolescente derrubou pratos na cozinha.,pratos,CNE,CNE+P,NULL
1722101295,e113df7974290c11b09c5021df6bcb04,PennController,18,0,target,NULL,Scale,respostapractice,Choice,5,1722101139233,V143,B,7,O adolescente derrubou pratos na cozinha.,pratos,CNE,CNE+P,NULL
1722101295,e113df7974290c11b09c5021df6bcb04,PennController,50,0,distractor,NULL,PennController,50,_Trial_,Start,1722101140405,V143,NA,23,A mãe lavou sua filha vestido fedorento.,NA,NA,NA,NULL
1722101295,e113df7974290c11b09c5021df6bcb04,PennController,18,0,target,NULL,PennController,18,_Trial_,End,1722101140405,V143,B,7,O adolescente derrubou pratos na cozinha.,pratos,CNE,CNE+P,NULL
1722101295,e113df7974290c11b09c5021df6bcb04,PennController,50,0,distractor,NULL,Text,sentence,Print,NA,1722101140406,V143,NA,23,A mãe lavou sua filha vestido fedorento.,NA,NA,NA,NULL
1722101295,e113df7974290c11b09c5021df6bcb04,PennController,50,0,distractor,NULL,Button,Julgar,Click,Click,1722101144141,V143,NA,23,A mãe lavou sua filha vestido fedorento.,NA,NA,NA,NULL
1722101295,e113df7974290c11b09c5021df6bcb04,PennController,50,0,distractor,NULL,Scale,respostapractice,Choice,3,1722101153594,V143,NA,23,A mãe lavou sua filha vestido fedorento.,NA,NA,NA,NULL
1722101295,e113df7974290c11b09c5021df6bcb04,PennController,57,0,distractor,NULL,PennController,57,_Trial_,Start,1722101154644,V143,NA,30,Olivia cortou Jack longo cabelo.,NA,NA,NA,NULL
1722101295,e113df7974290c11b09c5021df6bcb04,PennController,50,0,distractor,NULL,PennController,50,_Trial_,End,1722101154644,V143,NA,23,A mãe lavou sua filha vestido fedorento.,NA,NA,NA,NULL
1722101295,e113df7974290c11b09c5021df6bcb04,PennController,57,0,distractor,NULL,Text,sentence,Print,NA,1722101154645,V143,NA,30,Olivia cortou Jack longo cabelo.,NA,NA,NA,NULL
1722101295,e113df7974290c11b09c5021df6bcb04,PennController,57,0,distractor,NULL,Button,Julgar,Click,Click,1722101159346,V143,NA,30,Olivia cortou Jack longo cabelo.,NA,NA,NA,NULL
1722101295,e113df7974290c11b09c5021df6bcb04,PennController,57,0,distractor,NULL,Scale,respostapractice,Choice,1,1722101167995,V143,NA,30,Olivia cortou Jack longo cabelo.,NA,NA,NA,NULL
1722101295,e113df7974290c11b09c5021df6bcb04,PennController,25,0,target,NULL,PennController,25,_Trial_,Start,1722101168749,V143,B,14,A menina perdeu biscoitos na viajem. ,biscoitos,CE,CE+P,NULL
1722101295,e113df7974290c11b09c5021df6bcb04,PennController,57,0,distractor,NULL,PennController,57,_Trial_,End,1722101168749,V143,NA,30,Olivia cortou Jack longo cabelo.,NA,NA,NA,NULL
1722101295,e113df7974290c11b09c5021df6bcb04,PennController,25,0,target,NULL,Text,sentence,Print,NA,1722101168750,V143,B,14,A menina perdeu biscoitos na viajem. ,biscoitos,CE,CE+P,NULL
1722101295,e113df7974290c11b09c5021df6bcb04,PennController,25,0,target,NULL,Button,Julgar,Click,Click,1722101171375,V143,B,14,A menina perdeu biscoitos na viajem. ,biscoitos,CE,CE+P,NULL
1722101295,e113df7974290c11b09c5021df6bcb04,PennController,25,0,target,NULL,Scale,respostapractice,Choice,5,1722101174398,V143,B,14,A menina perdeu biscoitos na viajem. ,biscoitos,CE,CE+P,NULL
1722101295,e113df7974290c11b09c5021df6bcb04,PennController,25,0,target,NULL,PennController,25,_Trial_,End,1722101175740,V143,B,14,A menina perdeu biscoitos na viajem. ,biscoitos,CE,CE+P,NULL
1722101295,e113df7974290c11b09c5021df6bcb04,PennController,58,0,distractor,NULL,Text,sentence,Print,NA,1722101175741,V143,NA,31,O produtor gravou o cantor gentil voz.,NA,NA,NA,NULL
1722101295,e113df7974290c11b09c5021df6bcb04,PennController,58,0,distractor,NULL,PennController,58,_Trial_,Start,1722101175741,V143,NA,31,O produtor gravou o cantor gentil voz.,NA,NA,NA,NULL
1722101295,e113df7974290c11b09c5021df6bcb04,PennController,58,0,distractor,NULL,Button,Julgar,Click,Click,1722101179028,V143,NA,31,O produtor gravou o cantor gentil voz.,NA,NA,NA,NULL
1722101295,e113df7974290c11b09c5021df6bcb04,PennController,58,0,distractor,NULL,Scale,respostapractice,Choice,4,1722101189274,V143,NA,31,O produtor gravou o cantor gentil voz.,NA,NA,NA,NULL
1722101295,e113df7974290c11b09c5021df6bcb04,PennController,36,0,distractor,NULL,PennController,36,_Trial_,Start,1722101190772,V143,NA,9,Gia chutou a bola furiosamente.,NA,NA,NA,NULL
1722101295,e113df7974290c11b09c5021df6bcb04,PennController,58,0,distractor,NULL,PennController,58,_Trial_,End,1722101190772,V143,NA,31,O produtor gravou o cantor gentil voz.,NA,NA,NA,NULL
1722101295,e113df7974290c11b09c5021df6bcb04,PennController,36,0,distractor,NULL,Text,sentence,Print,NA,1722101190773,V143,NA,9,Gia chutou a bola furiosamente.,NA,NA,NA,NULL
1722101295,e113df7974290c11b09c5021df6bcb04,PennController,36,0,distractor,NULL,Button,Julgar,Click,Click,1722101194060,V143,NA,9,Gia chutou a bola furiosamente.,NA,NA,NA,NULL
1722101295,e113df7974290c11b09c5021df6bcb04,PennController,36,0,distractor,NULL,Scale,respostapractice,Choice,5,1722101195668,V143,NA,9,Gia chutou a bola furiosamente.,NA,NA,NA,NULL
1722101295,e113df7974290c11b09c5021df6bcb04,PennController,36,0,distractor,NULL,PennController,36,_Trial_,End,1722101196905,V143,NA,9,Gia chutou a bola furiosamente.,NA,NA,NA,NULL
1722101295,e113df7974290c11b09c5021df6bcb04,PennController,15,0,target,NULL,Text,sentence,Print,NA,1722101196906,V143,B,4,A aluna trouxe pera da feira.,pera,CE,CE+S,NULL
1722101295,e113df7974290c11b09c5021df6bcb04,PennController,15,0,target,NULL,PennController,15,_Trial_,Start,1722101196906,V143,B,4,A aluna trouxe pera da feira.,pera,CE,CE+S,NULL
1722101295,e113df7974290c11b09c5021df6bcb04,PennController,15,0,target,NULL,Button,Julgar,Click,Click,1722101199580,V143,B,4,A aluna trouxe pera da feira.,pera,CE,CE+S,NULL
1722101295,e113df7974290c11b09c5021df6bcb04,PennController,15,0,target,NULL,Scale,respostapractice,Choice,5,1722101201346,V143,B,4,A aluna trouxe pera da feira.,pera,CE,CE+S,NULL
1722101295,e113df7974290c11b09c5021df6bcb04,PennController,34,0,distractor,NULL,PennController,34,_Trial_,Start,1722101202423,V143,NA,7,A menina estudou tristemente matemática.,NA,NA,NA,NULL
1722101295,e113df7974290c11b09c5021df6bcb04,PennController,15,0,target,NULL,PennController,15,_Trial_,End,1722101202423,V143,B,4,A aluna trouxe pera da feira.,pera,CE,CE+S,NULL
1722101295,e113df7974290c11b09c5021df6bcb04,PennController,34,0,distractor,NULL,Text,sentence,Print,NA,1722101202424,V143,NA,7,A menina estudou tristemente matemática.,NA,NA,NA,NULL
1722101295,e113df7974290c11b09c5021df6bcb04,PennController,34,0,distractor,NULL,Button,Julgar,Click,Click,1722101205685,V143,NA,7,A menina estudou tristemente matemática.,NA,NA,NA,NULL
1722101295,e113df7974290c11b09c5021df6bcb04,PennController,34,0,distractor,NULL,Scale,respostapractice,Choice,5,1722101207403,V143,NA,7,A menina estudou tristemente matemática.,NA,NA,NA,NULL
1722101295,e113df7974290c11b09c5021df6bcb04,PennController,34,0,distractor,NULL,PennController,34,_Trial_,End,1722101208575,V143,NA,7,A menina estudou tristemente matemática.,NA,NA,NA,NULL
